time,Ax,Ay,Az,Gx,Gy,Gz
1711539052.844,0.0,0.0,0.0,0.0,0.0,0.489
1711539052.95,8.347,-6.855,2.551,-0.015,0.244,0.198
1711539053.056,8.373,-6.843,2.572,-1.954,0.252,0.16
1711539053.162,8.402,-6.833,2.498,-0.038,0.229,0.168
1711539053.269,8.356,-6.898,2.548,1.947,0.229,0.176
1711539053.375,8.371,-6.771,2.548,-0.031,0.221,0.16
1711539053.48,8.385,-6.823,2.481,-0.008,0.221,0.176
1711539053.586,8.366,-6.833,2.414,0.0,0.214,0.206
1711539053.691,8.327,-6.804,2.338,-0.038,0.237,0.153
1711539053.797,8.359,-6.835,2.436,-0.015,0.221,0.176
1711539053.902,8.373,-6.843,2.546,0.023,0.229,0.176
1711539054.008,8.347,-6.819,2.438,0.031,0.221,0.176
1711539054.114,8.361,-6.862,2.364,0.038,0.252,0.168
1711539054.219,8.339,-6.871,2.316,0.023,0.252,0.183
1711539054.325,8.38,-6.826,2.424,-1.947,0.244,0.176
1711539054.43,8.327,-7.032,2.354,0.023,0.244,0.153
1711539054.536,8.407,-6.919,2.5,0.015,0.29,0.191
1711539054.641,8.404,-6.869,2.357,0.038,0.229,0.168
1711539054.746,8.368,-6.85,2.426,0.023,0.237,0.168
1711539054.852,8.395,-6.831,2.383,0.023,0.244,0.191
1711539054.958,8.385,-6.816,2.4,0.031,0.244,0.191
1711539055.064,8.392,-6.898,2.402,0.023,0.214,0.153
1711539055.17,8.387,-6.867,2.393,0.031,0.214,0.176
1711539055.275,8.361,-6.89,2.405,0.008,0.244,0.183
1711539055.381,8.282,-6.857,2.338,0.038,0.206,0.16
1711539055.487,8.409,-6.84,2.357,0.031,0.221,0.183
1711539055.593,8.418,-6.874,2.347,0.031,0.252,0.198
1711539055.698,8.39,-6.919,2.457,0.038,0.206,0.176
1711539056.364,8.464,-6.878,2.275,0.008,0.275,0.16
1711539056.469,8.347,-6.859,2.409,0.0,0.237,0.183
1711539056.575,8.409,-6.874,2.508,0.023,0.229,0.153
1711539056.68,8.363,-6.84,2.33,0.031,0.229,0.145
1711539056.786,8.327,-6.871,2.366,0.038,0.214,0.183
1711539056.891,8.397,-6.919,2.345,0.023,0.275,0.16
1711539056.997,8.39,-6.847,2.395,0.038,0.252,0.168
1711539057.103,8.438,-6.814,2.369,0.023,0.214,0.168
1711539057.209,8.356,-6.888,2.338,0.031,0.244,0.183
1711539057.314,8.435,-6.878,2.385,0.0,0.275,0.176
1711539057.42,8.395,-6.893,2.345,0.031,0.237,0.168
1711539057.526,8.387,-6.871,2.278,0.053,0.252,0.168
1711539057.632,8.368,-6.828,2.335,0.038,0.237,0.168
1711539057.738,8.318,-6.878,2.34,0.046,0.221,0.168
1711539057.844,8.354,-6.862,2.443,0.023,0.229,0.176
1711539057.95,8.38,-6.84,2.335,0.031,0.252,0.176
1711539058.055,8.327,-6.811,2.352,0.038,0.252,0.176
1711539058.161,8.32,-6.867,2.402,0.015,0.229,0.16
1711539058.267,8.371,-6.874,2.417,0.023,0.244,0.168
1711539058.373,8.282,-6.871,2.381,0.023,0.237,0.183
1711539058.479,8.335,-6.828,2.364,0.015,0.229,0.183
1711539058.584,8.351,-6.864,2.412,0.015,0.244,0.168
1711539058.69,8.282,-6.869,2.393,0.031,0.229,0.176
1711539058.796,8.373,-6.814,2.254,0.023,0.229,0.191
1711539058.902,8.385,-6.778,2.453,0.038,0.229,0.183
1711539059.008,8.423,-6.871,2.388,0.038,0.229,0.191
1711539059.113,8.38,-6.886,2.361,0.031,0.229,0.176
1711539059.219,8.38,-6.859,2.393,0.0,0.221,0.183
1711539059.325,8.375,-6.847,2.385,0.015,0.221,0.191
1711539059.431,8.392,-6.888,2.213,0.038,0.229,0.168
1711539059.539,8.373,-6.85,2.39,0.015,0.26,0.168
1711539059.645,8.378,-6.883,2.448,0.015,0.237,0.153
1711539059.75,8.361,-6.847,2.342,0.015,0.237,0.191
1711539059.856,8.426,-6.862,2.383,-0.008,0.26,0.183
1711539059.961,8.332,-6.852,2.302,1.947,0.206,0.176
1711539060.067,8.385,-6.809,2.383,0.023,0.237,0.176
1711539060.172,8.323,-6.778,2.33,0.031,0.252,0.183
1711539060.278,8.332,-6.85,2.347,0.0,0.221,0.176
1711539060.383,8.323,-6.881,2.235,0.023,0.267,0.183
1711539060.489,8.404,-6.867,2.33,0.046,0.221,0.183
1711539060.595,8.344,-6.859,2.35,0.015,0.214,0.176
1711539060.7,8.395,-6.84,2.304,0.023,0.221,0.168
1711539060.806,8.373,-6.924,2.335,0.023,0.267,0.183
1711539060.912,8.397,-7.029,2.347,0.038,0.244,0.191
1711539061.018,8.32,-6.84,2.347,0.015,0.198,0.153
1711539061.123,8.38,-6.864,2.335,0.038,0.206,0.183
1711539061.229,8.327,-6.914,2.438,0.038,0.206,0.176
1711539061.335,8.368,-6.867,2.417,0.031,0.244,0.191
1711539061.441,8.404,-6.847,2.397,0.031,0.229,0.176
1711539061.547,8.366,-6.859,2.299,0.023,0.229,0.176
1711539061.653,8.325,-6.922,2.429,0.023,0.237,0.168
1711539061.758,8.301,-6.878,2.304,0.023,0.252,0.198
1711539061.864,8.311,-6.833,2.242,0.046,0.244,0.176
1711539061.97,8.407,-6.881,2.27,0.0,0.321,0.16
1711539062.076,8.423,-6.845,2.45,0.023,0.252,0.191
1711539062.182,8.366,-6.787,2.302,0.0,0.26,0.168
1711539062.287,8.268,-6.886,2.314,0.015,0.229,0.168
1711539062.393,8.375,-6.878,2.364,0.023,0.237,0.176
1711539062.498,8.375,-6.85,2.402,0.053,0.237,0.153
1711539062.603,8.366,-6.888,2.541,0.038,0.237,0.183
1711539062.709,8.356,-6.917,2.402,0.008,0.214,0.176
1711539062.815,8.33,-6.852,2.388,0.008,0.214,0.16
1711539062.92,8.363,-6.878,2.405,0.038,0.26,0.183
1711539063.026,8.332,-6.936,2.369,0.015,0.244,0.176
1711539063.132,8.505,-6.869,2.388,0.023,0.237,0.168
1711539063.238,8.339,-6.855,2.314,0.008,0.206,0.183
1711539063.344,8.339,-6.893,2.388,0.0,0.221,0.168
1711539063.449,8.316,-7.034,2.17,0.015,0.107,0.183
1711539063.555,8.342,-6.852,2.436,0.015,0.221,0.153
1711539063.661,8.351,-6.883,2.364,0.023,0.221,0.183
1711539063.766,8.201,-6.859,2.443,0.008,0.237,0.183
1711539063.871,8.387,-6.943,2.381,0.031,0.229,0.176
1711539063.977,8.402,-6.749,2.424,0.038,0.244,0.168
1711539064.082,8.392,-6.862,2.397,0.023,0.252,0.168
1711539064.188,8.351,-6.807,2.309,0.015,0.229,0.16
1711539064.293,8.395,-6.878,2.302,0.046,0.244,0.191
1711539064.399,8.356,-6.847,2.409,0.031,0.244,0.191
1711539064.505,8.318,-6.886,2.335,0.023,0.221,0.191
1711539064.611,8.32,-6.826,2.33,0.053,0.252,0.16
1711539064.716,8.404,-6.874,2.409,0.031,0.229,0.145
1711539064.822,8.38,-6.823,2.417,0.069,0.237,0.176
1711539064.927,8.44,-6.826,2.345,0.015,0.237,0.168
1711539065.033,8.581,-6.862,2.335,0.015,0.214,0.183
1711539065.138,8.351,-6.874,2.263,0.015,0.221,0.183
1711539065.243,8.392,-6.871,2.397,0.023,0.237,0.168
1711539065.349,8.545,-6.857,2.323,0.008,0.229,0.183
1711539065.455,8.363,-6.852,2.409,0.008,0.237,0.168
1711539065.561,8.366,-6.857,2.328,0.023,0.244,0.183
1711539065.666,8.387,-7.005,2.436,0.023,0.214,0.183
1711539065.772,8.395,-6.864,2.4,0.031,0.252,0.16
1711539065.878,8.373,-6.852,2.302,0.023,0.298,0.16
1711539065.984,8.318,-7.008,2.357,0.023,0.183,0.183
1711539066.089,8.562,-6.835,2.441,0.015,0.305,0.168
1711539066.195,8.385,-6.835,2.282,0.053,0.229,0.16
1711539066.301,8.368,-7.017,2.338,0.015,0.237,0.168
1711539066.407,8.308,-6.859,2.165,0.031,0.267,0.176
1711539066.513,8.39,-6.876,2.431,0.023,0.221,0.191
1711539066.618,8.339,-6.862,2.318,0.023,0.244,0.16
1711539066.724,8.38,-6.84,2.326,0.046,0.237,0.198
1711539066.83,8.344,-6.859,2.376,0.038,0.267,0.16
1711539066.936,8.442,-6.907,2.388,0.015,0.198,0.168
1711539067.042,8.316,-6.799,2.402,0.008,0.198,0.176
1711539067.147,8.361,-6.747,2.388,0.031,0.252,0.176
1711539067.253,8.416,-6.833,2.419,0.031,0.244,0.191
1711539067.359,8.361,-6.922,2.431,0.046,0.237,0.176
1711539067.465,8.339,-6.787,2.328,0.0,0.26,0.183
1711539067.57,8.402,-6.922,2.34,0.023,0.252,0.16
1711539067.676,8.383,-7.01,2.359,0.015,0.237,0.176
1711539067.782,8.339,-6.869,2.369,0.0,0.237,0.176
1711539067.888,8.349,-6.809,2.462,0.015,0.221,0.176
1711539067.993,8.28,-6.776,2.27,0.031,0.229,0.145
1711539068.099,8.363,-6.843,2.338,0.046,0.237,0.183
1711539068.205,8.347,-6.852,2.35,0.023,0.26,0.16
1711539068.31,8.397,-6.869,2.436,0.015,0.221,0.168
1711539068.416,8.397,-6.84,2.373,0.031,0.252,0.153
1711539068.521,8.428,-6.867,2.436,0.015,0.26,0.183
1711539068.626,8.347,-6.914,2.306,0.023,0.244,0.176
1711539068.732,8.335,-6.857,2.29,0.031,0.26,0.168
1711539068.837,8.342,-6.84,2.45,0.046,0.252,0.16
1711539068.943,8.337,-6.914,2.431,0.046,0.214,0.16
1711539069.049,8.368,-6.922,2.4,0.038,0.252,0.183
1711539069.155,8.38,-6.862,2.338,0.023,0.237,0.183
1711539069.26,8.409,-6.895,2.373,0.023,0.229,0.168
1711539069.366,8.383,-6.958,2.393,0.031,0.038,0.145
1711539069.472,8.349,-6.771,2.036,0.031,0.0,0.183
1711539069.578,8.395,-6.855,2.354,-1.947,0.374,0.153
1711539069.683,8.347,-6.754,2.393,0.046,0.221,0.168
1711539069.789,8.395,-6.89,2.318,0.031,0.229,0.176
1711539069.895,8.198,-6.974,2.354,0.031,0.092,0.153
1711539070.001,8.402,-6.838,2.261,0.031,0.145,0.183
1711539070.107,8.347,-6.895,2.273,0.038,0.237,0.168
1711539070.212,8.32,-6.835,2.45,0.008,0.214,0.176
1711539070.318,8.356,-6.831,2.33,0.008,0.145,0.153
1711539070.424,8.311,-6.886,2.29,0.023,0.252,0.176
1711539070.53,8.354,-6.852,2.407,0.031,0.252,0.16
1711539070.635,8.38,-6.869,2.342,0.053,0.237,0.198
1711539070.741,8.316,-6.857,2.328,0.015,0.229,0.183
1711539070.847,8.335,-6.855,2.352,0.031,0.237,0.153
1711539070.952,8.38,-6.826,2.282,0.038,0.252,0.168
1711539071.058,8.371,-6.819,2.431,0.015,0.237,0.145
1711539071.164,8.363,-6.871,2.361,0.023,0.282,0.198
1711539071.269,8.378,-6.874,2.381,0.023,0.237,0.191
1711539071.375,8.351,-6.867,2.304,0.015,0.206,0.153
1711539071.48,8.32,-6.852,2.383,0.008,0.221,0.168
1711539071.586,8.397,-6.747,2.448,0.038,0.229,0.176
1711539071.691,8.342,-6.867,2.371,0.0,0.229,0.16
1711539071.797,8.397,-6.864,2.309,0.053,0.206,0.153
1711539071.902,8.368,-6.859,2.309,0.076,0.237,0.153
1711539072.008,8.423,-6.826,2.417,0.038,0.252,0.145
1711539072.114,8.327,-6.881,2.476,0.008,0.237,0.176
1711539072.22,8.344,-6.857,2.366,0.061,0.237,0.176
1711539072.326,8.383,-6.886,2.395,0.023,0.229,0.176
1711539072.431,8.409,-6.871,2.369,0.031,0.229,0.183
1711539072.537,8.385,-6.855,2.275,0.008,0.252,0.168
1711539072.643,8.363,-6.847,2.151,0.031,0.229,0.153
1711539072.748,8.454,-6.859,2.318,0.023,0.267,0.183
1711539072.853,8.385,-6.895,2.417,0.015,0.229,0.198
1711539072.959,8.325,-6.833,2.35,0.008,0.237,0.168
1711539073.064,8.335,-6.9,2.388,0.023,0.221,0.168
1711539073.17,8.373,-6.852,2.414,0.031,0.229,0.168
1711539073.275,8.402,-6.847,2.235,0.031,0.229,0.16
1711539073.381,8.361,-6.828,2.17,0.038,0.252,0.16
1711539073.487,8.411,-6.876,2.383,0.015,0.26,0.153
1711539073.593,8.38,-6.778,2.371,0.015,0.237,0.16
1711539073.699,8.387,-6.881,2.335,0.031,0.244,0.16
1711539073.804,8.416,-6.878,2.419,-1.939,0.214,0.183
1711539073.91,8.371,-6.847,2.397,0.023,0.214,0.176
1711539074.016,8.339,-6.833,2.16,0.031,0.244,0.168
1711539074.121,8.373,-7.034,2.359,0.046,0.252,0.16
1711539074.227,8.385,-6.85,2.335,0.023,0.221,0.183
1711539074.333,8.366,-6.895,2.472,0.015,0.229,0.168
1711539074.439,8.339,-6.874,2.371,1.947,0.221,0.16
1711539074.544,8.383,-6.819,2.4,0.038,0.244,0.153
1711539074.65,8.375,-6.886,2.34,0.015,0.237,0.16
1711539074.756,8.325,-6.84,2.369,0.046,0.252,0.168
1711539074.861,8.426,-6.998,2.237,0.061,0.252,0.176
1711539074.967,8.395,-6.878,2.369,0.023,0.252,0.153
1711539075.072,8.378,-7.032,2.309,0.008,0.26,0.176
1711539075.177,8.316,-6.809,2.175,0.023,0.26,0.183
1711539075.283,8.325,-6.864,2.405,0.031,0.244,0.153
1711539075.388,8.387,-6.859,2.335,0.015,0.237,0.183
1711539075.494,8.383,-6.905,2.213,0.008,0.229,0.16
1711539075.6,8.351,-6.893,2.369,-1.947,0.237,0.191
1711539075.705,8.407,-6.783,2.302,0.023,0.229,0.183
1711539075.811,8.399,-6.843,2.357,-0.008,0.206,0.176
1711539075.917,8.385,-6.912,2.342,0.046,0.237,0.176
1711539076.023,8.402,-6.89,2.409,0.046,0.229,0.153
1711539076.128,8.39,-6.807,2.373,0.023,0.214,0.191
1711539076.234,8.363,-6.871,2.294,0.023,0.237,0.191
1711539076.34,8.316,-6.862,2.345,0.0,0.252,0.168
1711539076.445,8.342,-6.826,2.381,0.069,0.221,0.168
1711539076.551,8.306,-6.907,2.4,0.015,0.229,0.168
1711539076.657,8.287,-6.802,2.4,0.023,0.237,0.16
1711539076.763,8.306,-6.886,2.316,0.038,0.237,0.168
1711539076.868,8.359,-7.017,2.321,0.008,0.252,0.153
1711539076.974,8.375,-6.776,2.359,0.023,0.244,0.16
1711539077.08,8.359,-6.867,2.369,0.038,0.244,0.183
1711539077.186,8.371,-6.893,2.323,0.015,0.214,0.191
1711539077.292,8.268,-6.855,2.457,0.031,0.084,0.168
1711539077.398,8.373,-6.876,2.1,0.008,0.252,0.183
1711539077.503,8.402,-6.845,2.323,0.008,0.26,0.183
1711539077.609,8.344,-6.874,2.366,0.031,0.206,0.153
1711539077.715,8.301,-6.965,2.345,0.023,0.237,0.183
1711539077.821,8.344,-6.826,2.402,0.023,0.282,0.16
1711539077.927,8.397,-6.847,2.333,0.061,0.214,0.191
1711539078.033,8.385,-6.833,2.457,0.031,0.198,0.153
1711539078.138,8.378,-6.826,2.275,0.023,0.221,0.176
1711539078.244,8.366,-6.907,2.381,0.046,0.275,0.176
1711539078.35,8.368,-6.831,2.338,0.008,0.244,0.176
1711539078.456,8.39,-6.914,2.395,1.947,0.214,0.168
1711539078.561,8.316,-6.79,2.294,0.053,0.252,0.168
1711539078.667,8.366,-6.867,2.345,0.031,0.275,0.191
1711539078.773,8.349,-6.917,2.345,0.015,0.237,0.16
1711539078.879,8.368,-6.893,2.177,0.015,0.206,0.176
1711539078.984,8.337,-6.893,2.429,0.023,0.244,0.168
1711539079.09,8.404,-6.843,2.366,0.031,0.267,0.176
1711539079.196,8.354,-6.902,2.34,0.008,0.214,0.176
1711539079.302,8.404,-6.905,2.424,0.015,0.237,0.168
1711539079.407,8.407,-6.828,2.429,0.038,0.244,0.153
1711539079.513,8.354,-6.826,2.395,0.023,0.221,0.176
1711539079.618,8.397,-6.828,2.381,0.015,0.221,0.176
1711539079.724,8.342,-6.752,2.436,0.015,0.252,0.183
1711539079.829,8.399,-6.943,2.393,0.031,0.229,0.198
1711539079.934,8.378,-7.049,2.383,0.008,0.229,0.16
1711539080.04,8.397,-6.831,2.39,0.046,0.229,0.153
1711539080.146,8.371,-6.843,2.405,0.031,0.244,0.168
1711539080.252,8.363,-6.888,2.385,0.038,0.229,0.176
1711539080.357,8.363,-6.756,2.364,0.008,0.229,0.168
1711539080.463,8.378,-6.847,2.421,0.015,0.237,0.176
1711539080.569,8.397,-7.003,2.45,0.038,0.229,0.168
1711539080.675,8.347,-6.888,2.378,0.008,0.237,0.183
1711539080.78,8.277,-6.907,2.364,0.023,0.244,0.191
1711539080.886,8.28,-6.878,2.378,0.015,0.229,0.168
1711539080.992,8.366,-6.871,2.302,0.023,0.221,0.145
1711539081.097,8.371,-6.931,2.357,0.038,0.244,0.183
1711539081.203,8.347,-6.907,2.376,0.015,0.244,0.168
1711539081.309,8.337,-6.867,2.376,0.069,0.229,0.145
1711539081.415,8.411,-6.876,2.275,0.023,0.237,0.176
1711539081.521,8.299,-6.838,2.412,0.038,0.237,0.16
1711539081.627,8.486,-6.888,2.405,0.023,0.237,0.176
1711539081.732,8.399,-6.833,2.249,0.015,0.221,0.153
1711539081.838,8.32,-6.821,2.311,0.031,0.237,0.168
1711539081.944,8.399,-6.776,2.338,0.031,0.252,0.183
1711539082.051,8.351,-6.917,2.417,0.038,0.214,0.16
1711539082.157,8.325,-7.029,2.206,0.023,0.221,0.183
1711539082.263,8.38,-6.768,2.318,0.023,0.244,0.145
1711539082.37,8.397,-6.878,2.189,0.023,0.221,0.168
1711539082.475,8.323,-6.85,2.326,0.023,0.221,0.176
1711539082.581,8.313,-6.89,2.395,0.023,0.26,0.168
1711539082.687,8.375,-6.859,2.309,0.023,0.252,0.198
1711539082.794,8.351,-6.869,2.33,0.031,0.229,0.168
1711539082.9,8.404,-6.89,2.364,0.031,0.244,0.168
1711539083.005,8.423,-6.838,2.436,0.023,0.221,0.168
1711539083.112,8.335,-7.046,2.287,0.031,0.237,0.176
1711539083.217,8.366,-6.907,2.287,0.053,0.237,0.183
1711539083.323,8.407,-6.845,2.373,0.023,0.229,0.168
1711539083.429,8.349,-6.852,2.342,0.008,0.244,0.191
1711539083.535,8.385,-6.816,2.405,0.015,0.244,0.168
1711539083.641,8.392,-6.838,2.297,0.0,0.221,0.183
1711539083.746,8.371,-6.843,2.426,0.038,0.221,0.176
1711539083.852,8.347,-6.821,2.292,0.0,0.244,0.176
1711539083.958,8.423,-6.84,2.369,0.046,0.229,0.168
1711539084.064,8.366,-6.886,2.34,0.023,0.229,0.153
1711539084.169,8.39,-6.917,2.364,0.023,0.244,0.176
1711539084.275,8.359,-6.867,2.4,0.015,0.252,0.183
1711539084.381,8.428,-6.843,2.287,0.031,0.267,0.153
1711539084.487,8.342,-6.878,2.402,-0.015,0.145,0.168
1711539084.593,8.416,-6.768,2.27,0.031,0.191,0.191
1711539084.699,8.354,-6.754,2.419,0.031,0.237,0.168
1711539084.804,8.327,-6.843,2.237,0.015,0.198,0.168
1711539084.91,8.39,-6.749,2.373,0.023,0.252,0.168
1711539085.015,8.418,-6.828,2.302,0.038,0.237,0.176
1711539085.12,8.354,-6.886,2.373,0.031,0.237,0.16
1711539085.226,8.387,-6.9,2.35,1.947,0.275,0.183
1711539085.331,8.409,-6.867,2.259,0.031,0.244,0.153
1711539085.437,8.428,-6.833,2.328,0.023,0.252,0.16
1711539085.542,8.335,-6.857,2.366,0.008,0.214,0.176
1711539085.648,8.361,-6.924,2.33,0.023,0.206,0.168
1711539085.753,8.339,-6.85,2.426,0.038,0.26,0.183
1711539085.859,8.395,-6.867,2.33,0.023,0.252,0.168
1711539085.964,8.402,-6.924,2.366,0.015,0.29,0.176
1711539086.069,8.342,-6.814,2.345,0.015,0.168,0.153
1711539086.175,8.395,-6.876,2.345,0.023,0.198,0.145
1711539086.28,8.526,-6.864,2.409,0.008,0.237,0.16
1711539086.386,8.332,-6.852,2.4,0.015,0.229,0.168
1711539086.492,8.361,-6.752,2.263,0.008,0.198,0.168
1711539086.598,8.378,-6.855,2.366,0.023,0.221,0.16
1711539086.704,8.349,-7.039,2.443,0.015,0.221,0.168
1711539086.81,8.395,-6.864,2.417,0.023,0.244,0.191
1711539086.916,8.359,-6.833,2.376,0.008,0.237,0.183
1711539087.021,8.344,-6.826,2.393,0.023,0.214,0.16
1711539087.127,8.332,-7.037,2.383,0.015,0.237,0.137
1711539087.233,8.373,-6.857,2.357,0.031,0.237,0.191
1711539087.339,8.371,-6.859,2.395,0.023,0.221,0.168
1711539087.445,8.339,-6.874,2.393,0.023,0.221,0.176
1711539087.551,8.356,-6.878,2.366,0.023,0.244,0.176
1711539087.656,8.371,-6.747,2.34,0.008,0.244,0.176
1711539087.762,8.383,-6.881,2.366,0.031,0.206,0.16
1711539087.867,8.361,-6.883,2.347,0.031,0.26,0.16
1711539087.973,8.339,-6.907,2.273,0.0,0.221,0.176
1711539088.079,8.361,-6.881,2.407,0.015,0.244,0.176
1711539088.184,8.411,-6.792,2.405,0.031,0.237,0.183
1711539088.289,8.349,-6.876,2.323,0.0,0.214,0.183
1711539088.395,8.363,-6.878,2.328,0.015,0.221,0.168
1711539088.5,8.356,-6.826,2.297,0.023,0.244,0.176
1711539088.067,8.359,-6.886,2.33,-0.008,0.237,0.176
1711539088.173,8.359,-6.871,2.292,0.038,0.237,0.191
1711539088.279,8.469,-6.85,2.46,0.038,0.198,0.183
1711539088.385,8.38,-6.847,2.263,0.023,0.206,0.176
1711539088.49,8.375,-6.881,2.357,0.038,0.229,0.168
1711539088.596,8.299,-6.886,2.297,0.031,0.29,0.183
1711539088.702,8.385,-6.864,2.373,0.031,0.214,0.168
1711539088.808,8.39,-6.869,2.381,0.023,0.214,0.153
1711539088.914,8.428,-6.9,2.235,0.038,0.26,0.168
1711539089.019,8.399,-6.89,2.261,0.023,0.229,0.183
1711539089.125,8.361,-6.871,2.287,0.023,0.252,0.153
1711539089.231,8.363,-6.886,2.409,0.023,0.229,0.168
1711539089.336,8.32,-6.895,2.314,0.023,0.206,0.168
1711539089.442,8.385,-6.79,2.378,0.015,0.29,0.176
1711539089.547,8.392,-6.85,2.321,0.031,0.244,0.168
1711539089.652,8.38,-6.828,2.371,0.038,0.275,0.191
1711539089.758,8.33,-6.84,2.261,0.015,0.221,0.168
1711539089.864,8.565,-6.931,1.973,0.008,0.511,0.168
1711539089.969,8.339,-6.974,2.74,0.023,0.321,0.176
1711539090.075,8.337,-6.835,2.323,0.008,0.229,0.16
1711539090.18,8.349,-6.886,2.4,0.031,0.244,0.16
1711539090.286,8.284,-6.859,2.345,0.031,0.229,0.168
1711539090.391,8.304,-6.878,2.35,0.031,0.244,0.168
1711539090.497,8.306,-6.835,2.148,0.023,0.221,0.168
1711539090.602,8.366,-6.821,2.357,0.015,0.229,0.176
1711539090.708,8.442,-6.826,2.421,0.015,0.122,0.137
1711539090.813,8.332,-6.867,2.244,0.031,0.26,0.168
1711539090.919,8.387,-6.869,2.333,0.038,0.244,0.16
1711539091.025,8.371,-6.902,2.29,0.008,0.229,0.168
1711539091.13,8.407,-6.881,2.338,0.015,0.221,0.183
1711539091.236,8.426,-6.878,2.352,0.031,0.237,0.145
1711539091.342,8.316,-6.833,2.373,0.023,0.229,0.168
1711539091.448,8.349,-6.833,2.361,0.046,0.206,0.183
1711539091.554,8.521,-6.895,2.381,0.023,0.298,0.183
1711539091.66,8.354,-6.867,2.417,0.046,0.229,0.183
1711539091.765,8.359,-6.857,2.29,0.046,0.183,0.183
1711539091.871,8.351,-6.855,2.335,0.023,0.252,0.168
1711539091.977,8.366,-6.9,2.278,0.015,0.229,0.16
1711539092.082,8.359,-6.823,2.407,0.0,0.13,0.176
1711539092.188,8.373,-6.85,2.314,0.023,0.229,0.183
1711539092.294,8.495,-6.857,2.084,0.015,0.267,0.168
1711539092.4,8.385,-6.878,2.088,1.947,0.099,0.145
1711539092.506,8.356,-6.819,2.587,0.053,0.183,0.16
1711539092.611,8.335,-6.917,2.249,0.015,0.229,0.176
1711539092.717,8.371,-6.905,2.213,0.015,0.229,0.176
1711539092.823,8.232,-7.005,2.905,0.053,0.206,0.191
1711539092.928,8.33,-6.867,2.165,0.031,0.252,0.168
1711539093.034,8.33,-6.845,2.409,0.008,0.267,0.183
1711539093.14,8.378,-6.845,2.237,0.023,0.237,0.176
1711539093.245,8.342,-6.876,2.326,0.038,0.282,0.176
1711539093.351,8.385,-6.926,2.316,0.008,0.282,0.191
1711539093.457,8.39,-6.876,2.335,0.015,0.206,0.176
1711539093.562,8.313,-6.852,2.39,0.038,0.214,0.191
1711539093.668,8.397,-6.924,2.299,0.053,0.221,0.176
1711539093.774,8.349,-6.845,2.347,1.947,0.206,0.168
1711539093.88,8.33,-6.835,2.357,0.038,0.206,0.153
1711539093.985,8.371,-6.833,2.369,0.031,0.244,0.168
1711539094.091,8.438,-6.914,2.282,0.008,0.275,0.191
1711539094.197,8.349,-6.831,2.395,0.008,0.252,0.168
1711539094.303,8.397,-6.811,2.393,0.023,0.214,0.16
1711539094.409,8.342,-6.807,2.352,0.031,0.26,0.168
1711539094.514,8.32,-6.886,2.378,0.015,0.237,0.168
1711539094.62,8.318,-6.926,2.299,0.015,0.221,0.183
1711539094.726,8.363,-6.826,2.378,0.008,0.206,0.168
1711539094.832,8.366,-6.871,2.321,0.008,0.229,0.176
1711539094.938,8.349,-6.902,2.249,0.015,0.26,0.191
1711539095.044,8.356,-6.84,2.438,0.023,0.229,0.168
1711539095.149,8.349,-6.902,2.373,0.023,0.191,0.183
1711539095.255,8.375,-6.852,2.299,0.023,0.244,0.176
1711539095.361,8.409,-6.905,2.347,0.023,0.244,0.168
1711539095.467,8.366,-6.828,2.395,0.031,0.214,0.153
1711539095.572,8.385,-6.874,2.438,0.008,0.206,0.168
1711539095.678,8.349,-6.876,2.421,0.038,0.237,0.176
1711539095.784,8.402,-6.878,2.302,0.015,0.244,0.176
1711539095.89,8.363,-6.847,2.297,1.947,0.229,0.168
1711539095.996,8.39,-6.826,2.371,0.023,0.237,0.176
1711539096.101,8.32,-6.914,2.352,0.023,0.237,0.176
1711539096.207,8.366,-6.876,2.371,0.008,0.229,0.145
1711539096.313,8.383,-6.828,2.431,0.008,0.267,0.198
1711539096.419,8.373,-6.907,2.397,0.031,0.252,0.176
1711539096.525,8.299,-6.898,2.402,0.031,0.252,0.168
1711539096.63,8.43,-6.783,2.354,0.031,0.26,0.176
1711539096.736,8.337,-6.852,2.371,0.031,0.229,0.16
1711539096.842,8.349,-6.833,2.409,0.015,0.221,0.191
1711539096.948,8.339,-6.826,2.352,0.008,0.267,0.168
1711539097.054,8.368,-6.838,2.359,0.023,0.221,0.176
1711539097.16,8.378,-6.752,2.381,0.038,0.229,0.168
1711539097.266,8.392,-6.84,2.33,0.038,0.244,0.168
1711539097.371,8.371,-6.902,2.323,0.031,0.26,0.168
1711539097.477,8.44,-6.871,2.342,0.023,0.214,0.191
1711539097.583,8.366,-6.847,2.383,0.038,0.229,0.176
1711539097.688,8.435,-6.898,2.309,0.023,0.237,0.153
1711539097.795,8.368,-6.876,2.299,0.023,0.229,0.176
1711539097.9,8.342,-6.823,2.342,0.031,0.237,0.145
1711539098.006,8.414,-6.811,2.405,0.0,0.214,0.183
1711539098.112,8.397,-6.862,2.244,0.008,0.237,0.16
1711539098.218,8.407,-6.874,2.397,0.015,0.305,0.183
1711539098.323,8.313,-6.838,2.383,0.023,0.221,0.168
1711539098.429,8.373,-6.871,2.328,0.008,0.237,0.191
1711539098.535,8.416,-6.878,2.338,0.015,0.237,0.145
1711539098.641,8.287,-7.027,2.424,0.046,0.237,0.198
1711539098.747,8.375,-6.869,2.388,0.031,0.229,0.176
1711539098.853,8.385,-6.752,2.33,0.0,0.229,0.16
1711539098.961,8.438,-6.898,2.278,0.038,0.229,0.183
1711539099.067,8.327,-6.874,2.33,0.038,0.153,0.137
1711539099.172,8.344,-6.869,2.357,0.038,0.229,0.176
1711539099.278,8.383,-6.864,2.201,0.008,0.198,0.183
1711539099.383,8.368,-6.852,2.338,0.023,0.237,0.16
1711539099.488,8.553,-6.893,2.314,0.031,0.229,0.191
1711539099.594,8.476,-6.843,2.407,0.0,0.252,0.176
1711539099.699,8.325,-6.749,2.342,0.015,0.214,0.191
1711539099.805,8.577,-6.778,2.354,-1.954,0.321,0.183
1711539099.91,8.361,-6.902,2.373,0.015,0.191,0.153
1711539100.016,8.39,-6.898,2.282,0.015,0.229,0.198
1711539100.122,8.38,-6.799,2.352,0.008,0.237,0.176
1711539100.228,8.373,-6.84,2.35,-1.954,0.237,0.183
1711539100.333,8.418,-6.847,2.35,0.038,0.29,0.183
1711539100.439,8.371,-6.876,2.369,0.008,0.229,0.191
1711539100.545,8.39,-6.893,2.388,0.031,0.221,0.183
1711539100.65,8.318,-6.867,2.314,0.038,0.244,0.168
1711539100.756,8.435,-6.843,2.27,0.038,0.229,0.176
1711539100.862,8.359,-6.895,2.297,0.023,0.221,0.153
1711539100.968,8.318,-6.859,2.383,0.008,0.214,0.183
1711539101.074,8.395,-6.814,2.34,0.053,0.237,0.168
1711539101.179,8.359,-6.838,2.364,0.023,0.267,0.183
1711539101.285,8.414,-6.847,2.393,1.947,0.237,0.168
1711539101.391,8.399,-6.84,2.4,0.046,0.237,0.168
1711539101.497,8.371,-6.843,2.268,0.0,0.206,0.137
1711539101.603,8.356,-6.823,2.395,0.023,0.198,0.16
1711539101.708,8.366,-6.809,2.335,0.008,0.214,0.183
1711539101.814,8.327,-6.876,2.385,0.0,0.214,0.168
1711539101.921,8.416,-6.871,2.371,0.0,0.26,0.183
1711539102.027,8.375,-6.855,2.184,0.038,0.244,0.191
1711539102.132,8.335,-6.874,2.165,1.939,0.198,0.176
1711539102.238,8.385,-6.838,2.369,0.023,0.252,0.176
1711539102.344,8.361,-6.895,2.361,0.023,0.237,0.168
1711539102.45,8.421,-6.819,2.354,0.023,0.267,0.168
1711539102.556,8.366,-6.878,2.405,0.031,0.237,0.168
1711539102.662,8.363,-6.888,2.4,0.008,0.214,0.183
1711539102.768,8.323,-6.833,2.376,0.038,0.198,0.168
1711539102.874,8.373,-6.85,2.397,0.015,0.244,0.176
1711539102.979,8.342,-6.855,2.323,0.023,0.221,0.16
1711539103.085,8.385,-6.867,2.323,0.023,0.237,0.176
1711539103.191,8.349,-6.867,2.388,0.015,0.244,0.168
1711539103.297,8.407,-6.89,2.417,0.023,0.252,0.191
1711539103.402,8.335,-6.833,2.314,0.008,0.198,0.153
1711539103.508,8.363,-6.874,2.29,0.023,0.275,0.16
1711539103.614,8.344,-6.871,2.39,0.008,0.237,0.16
1711539103.72,8.38,-6.914,2.388,0.038,0.214,0.191
1711539103.826,8.292,-6.764,2.393,0.015,0.244,0.183
1711539103.931,8.392,-6.809,2.345,0.023,0.229,0.168
1711539104.037,8.407,-6.862,2.335,0.015,0.221,0.183
1711539104.142,8.38,-6.84,2.242,0.046,0.229,0.168
1711539104.248,8.375,-6.912,2.369,0.0,0.229,0.176
1711539104.353,8.308,-6.831,2.282,0.031,0.214,0.168
1711539104.459,8.397,-6.902,2.376,0.008,0.244,0.176
1711539104.564,8.33,-6.759,2.448,0.023,0.237,0.191
1711539104.67,8.359,-6.867,2.381,0.008,0.252,0.183
1711539104.776,8.38,-6.828,2.345,0.038,0.229,0.168
1711539104.882,8.375,-6.876,2.211,0.023,0.198,0.176
1711539104.988,8.39,-6.869,2.34,0.038,0.244,0.145
1711539105.094,8.38,-6.766,2.156,0.023,0.214,0.168
1711539105.199,8.363,-6.795,2.347,0.023,0.244,0.16
1711539105.305,8.375,-6.807,2.28,0.023,0.244,0.16
1711539105.411,8.375,-6.917,2.4,0.023,0.275,0.16
1711539105.517,8.392,-7.051,2.359,0.031,0.252,0.168
1711539105.622,8.363,-6.804,2.35,0.023,0.206,0.153
1711539105.728,8.349,-7.046,2.4,0.023,0.221,0.176
1711539105.834,8.416,-6.855,2.323,0.038,0.26,0.176
1711539105.94,8.33,-6.747,2.182,0.023,0.26,0.168
1711539106.046,8.368,-6.936,2.302,0.015,0.244,0.16
1711539106.151,8.39,-6.847,2.311,0.015,0.214,0.176
1711539106.257,8.289,-6.754,2.393,0.038,0.282,0.168
1711539106.363,8.569,-6.754,2.318,0.031,0.198,0.16
1711539106.469,8.368,-6.864,2.34,0.046,0.252,0.191
1711539106.574,8.308,-6.828,2.361,0.023,0.26,0.168
1711539106.68,8.342,-6.807,2.366,0.015,0.221,0.191
1711539106.786,8.55,-6.881,2.318,0.031,0.26,0.168
1711539106.892,8.356,-7.041,2.448,0.015,0.244,0.153
1711539106.998,8.282,-6.9,2.347,0.008,0.229,0.168
1711539107.104,8.399,-6.883,2.187,0.046,0.221,0.168
1711539107.209,8.356,-6.886,2.361,0.023,0.229,0.168
1711539107.315,8.366,-6.886,2.448,0.008,0.275,0.16
1711539107.421,8.375,-6.799,2.441,0.031,0.214,0.168
1711539107.527,8.371,-6.876,2.345,0.015,0.237,0.153
1711539107.633,8.32,-6.898,2.309,0.046,0.252,0.176
1711539107.739,8.327,-6.79,2.249,0.008,0.206,0.191
1711539107.845,8.332,-6.881,2.378,0.0,0.26,0.176
1711539107.95,8.397,-6.902,2.335,0.023,0.237,0.168
1711539108.056,8.33,-6.859,2.383,0.0,0.252,0.168
1711539108.162,8.366,-6.871,2.242,0.038,0.229,0.168
1711539108.268,8.371,-6.778,2.208,0.008,0.206,0.168
1711539108.374,8.395,-6.752,2.153,0.046,0.244,0.168
1711539108.48,8.378,-6.754,2.388,0.031,0.252,0.183
1711539108.586,8.38,-6.931,2.369,0.015,0.237,0.16
1711539108.692,8.397,-6.816,2.27,0.008,0.229,0.191
1711539108.797,8.404,-6.826,2.282,0.023,0.221,0.16
1711539108.903,8.335,-6.821,2.328,0.031,0.221,0.176
1711539109.009,8.368,-6.859,2.361,0.008,0.252,0.16
1711539109.115,8.33,-6.85,2.304,0.015,0.206,0.168
1711539109.221,8.402,-6.898,2.338,0.0,0.237,0.183
1711539109.327,8.351,-6.912,2.306,0.031,0.198,0.168
1711539109.432,8.392,-6.867,2.244,0.038,0.244,0.183
1711539109.538,8.337,-6.85,2.393,0.015,0.244,0.198
1711539109.644,8.292,-6.946,2.371,0.023,0.229,0.183
1711539109.75,8.378,-6.84,2.28,0.008,0.229,0.191
1711539109.856,8.299,-6.773,2.582,0.015,0.176,0.183
1711539109.962,8.342,-6.84,2.385,0.038,0.229,0.168
1711539110.068,8.349,-6.835,2.397,0.031,0.244,0.176
1711539110.173,8.375,-6.845,2.326,0.008,0.237,0.168
1711539110.279,8.349,-6.855,2.328,0.023,0.237,0.16
1711539110.385,8.39,-6.886,2.314,0.023,0.237,0.176
1711539110.491,8.395,-6.934,2.373,0.008,0.214,0.168
1711539110.596,8.385,-6.833,2.292,0.053,0.252,0.191
1711539110.702,8.349,-6.919,2.369,0.031,0.237,0.168
1711539110.808,8.402,-6.862,2.338,0.015,0.237,0.176
1711539110.914,8.292,-6.852,2.297,0.015,0.237,0.168
1711539111.019,8.332,-6.826,2.287,0.023,0.229,0.176
1711539111.125,8.402,-7.044,2.347,0.031,0.237,0.176
1711539111.231,8.354,-6.886,2.256,0.023,0.221,0.168
1711539111.337,8.409,-6.852,2.357,0.023,0.237,0.183
1711539111.443,8.375,-6.886,2.373,0.031,0.229,0.183
1711539111.548,8.359,-6.886,2.28,0.023,0.252,0.16
1711539111.654,8.428,-6.84,2.342,0.015,0.214,0.16
1711539111.76,8.387,-6.833,2.345,0.031,0.244,0.183
1711539111.866,8.349,-6.871,2.376,0.015,0.244,0.176
1711539111.972,8.418,-6.869,2.359,0.038,0.237,0.183
1711539112.077,8.375,-6.778,2.373,0.023,0.252,0.16
1711539112.183,8.316,-6.919,2.364,0.008,0.237,0.176
1711539112.289,8.385,-6.876,2.328,0.038,0.229,0.183
1711539112.395,8.399,-6.867,2.354,0.031,0.221,0.16
1711539112.5,8.316,-6.898,2.282,0.038,0.237,0.183
1711539112.606,8.337,-6.859,2.359,0.015,0.267,0.168
1711539112.712,8.282,-6.797,2.321,0.023,0.252,0.176
1711539112.818,8.359,-6.907,2.39,0.0,0.221,0.191
1711539112.923,8.344,-6.89,2.156,0.023,0.229,0.183
1711539113.029,8.337,-6.905,2.311,0.031,0.237,0.168
1711539113.134,8.418,-6.85,2.381,0.046,0.237,0.176
1711539113.239,8.361,-6.898,2.395,0.053,0.221,0.168
1711539113.345,8.356,-6.864,2.359,0.031,0.252,0.168
1711539113.45,8.323,-6.876,2.33,0.046,0.244,0.168
1711539113.556,8.349,-7.051,2.304,0.023,0.252,0.153
1711539113.662,8.402,-6.881,2.421,0.046,0.237,0.168
1711539113.767,8.423,-6.85,2.414,0.031,0.252,0.16
1711539113.873,8.371,-6.826,2.378,0.015,0.252,0.168
1711539113.979,8.428,-7.046,2.323,0.015,0.237,0.168
1711539114.085,8.366,-6.9,2.402,0.0,0.282,0.183
1711539114.191,8.375,-6.855,2.385,0.023,0.214,0.176
1711539114.296,8.363,-6.89,2.388,0.008,0.252,0.191
1711539114.401,8.371,-6.905,2.393,0.008,0.221,0.168
1711539114.507,8.397,-6.859,2.373,0.023,0.237,0.168
1711539114.612,8.383,-6.919,2.395,0.008,0.237,0.16
1711539114.717,8.445,-6.759,2.34,0.015,0.221,0.183
1711539114.823,8.421,-6.871,2.275,0.038,0.252,0.16
1711539114.928,8.423,-6.888,2.306,0.031,0.26,0.183
1711539115.034,8.359,-6.905,2.357,0.038,0.221,0.183
1711539115.14,8.318,-6.893,2.405,1.947,0.252,0.198
1711539115.246,8.428,-6.816,2.347,0.008,0.237,0.168
1711539115.352,8.414,-6.843,2.402,0.015,0.229,0.168
1711539115.457,8.378,-6.883,2.395,0.015,0.244,0.145
1711539115.563,8.342,-6.764,2.405,0.008,0.221,0.183
1711539115.669,8.363,-6.919,2.352,0.031,0.221,0.183
1711539115.775,8.359,-6.838,2.378,0.008,0.237,0.183
1711539115.881,8.43,-6.893,2.311,0.046,0.252,0.153
1711539115.986,8.361,-6.874,2.299,0.023,0.237,0.168
1711539116.092,8.43,-6.902,2.306,0.023,0.244,0.168
1711539116.198,8.38,-6.833,2.323,0.008,0.237,0.176
1711539116.304,8.409,-6.838,2.395,0.038,0.26,0.176
1711539116.41,8.368,-6.845,2.345,0.008,0.244,0.183
1711539116.515,8.442,-6.907,2.361,0.015,0.237,0.191
1711539116.621,8.411,-6.864,2.354,0.038,0.229,0.183
1711539116.727,8.347,-6.876,2.306,0.008,0.229,0.198
1711539116.833,8.337,-6.888,2.345,0.023,0.237,0.176
1711539116.939,8.354,-6.902,2.373,0.038,0.206,0.145
1711539117.044,8.383,-6.855,2.328,0.015,0.176,0.183
1711539117.15,8.373,-6.931,2.323,0.015,0.244,0.176
1711539117.256,8.38,-6.871,2.472,0.031,0.252,0.168
1711539117.362,8.392,-6.826,2.381,0.031,0.229,0.176
1711539117.468,8.308,-6.934,2.35,0.0,0.214,0.176
1711539117.573,8.268,-6.84,2.29,0.038,0.214,0.191
1711539117.679,8.28,-6.905,2.364,0.046,0.267,0.16
1711539117.785,8.387,-6.922,2.321,0.023,0.237,0.176
1711539117.891,8.354,-6.931,2.366,0.015,0.237,0.191
1711539117.997,8.39,-6.833,2.45,0.023,0.214,0.168
1711539118.102,8.44,-6.787,2.412,0.031,0.191,0.168
1711539118.208,8.399,-6.926,2.323,0.023,0.252,0.168
1711539118.314,8.349,-6.859,2.345,0.015,0.237,0.183
1711539118.419,8.344,-6.845,2.326,0.0,0.206,0.16
1711539118.525,8.349,-6.847,2.443,0.023,0.198,0.176
1711539118.63,8.392,-6.845,2.201,0.0,0.221,0.183
1711539118.736,8.371,-6.881,2.335,0.038,0.244,0.176
1711539118.841,8.426,-6.811,2.378,0.038,0.229,0.176
1711539118.946,8.356,-6.862,2.448,-1.954,0.237,0.168
1711539119.052,8.385,-6.859,2.354,0.053,0.206,0.191
1711539119.158,8.354,-7.034,2.352,0.015,0.244,0.16
1711539119.263,8.366,-6.826,2.314,0.0,0.252,0.168
1711539119.369,8.407,-6.871,2.393,0.023,0.221,0.16
1711539119.474,8.349,-6.895,2.354,-0.008,0.237,0.153
1711539119.579,8.416,-6.864,2.34,0.053,0.26,0.168
1711539119.685,8.356,-7.029,2.352,0.015,0.26,0.198
1711539119.79,8.368,-6.874,2.335,0.023,0.252,0.168
1711539119.896,8.299,-6.852,2.371,0.015,0.229,0.191
1711539120.002,8.284,-6.867,2.215,0.008,0.137,0.183
1711539120.108,8.452,-6.871,2.426,0.038,0.237,0.176
1711539120.214,8.349,-6.833,2.29,0.023,0.26,0.191
1711539120.32,8.359,-6.893,2.347,0.008,0.26,0.16
1711539120.43,8.428,-6.9,2.333,0.015,0.229,0.176
1711539120.535,8.327,-7.037,2.311,0.008,0.206,0.168
1711539120.64,8.306,-6.874,2.261,0.0,0.275,0.168
1711539120.746,8.332,-7.032,2.366,0.015,0.282,0.198
1711539120.851,8.363,-6.902,2.366,0.015,0.244,0.191
1711539120.957,8.342,-6.871,2.39,0.031,0.214,0.16
1711539121.062,8.323,-6.823,2.395,0.038,0.252,0.191
1711539121.168,8.426,-6.878,2.412,0.031,0.198,0.198
1711539121.274,8.301,-6.859,2.4,0.015,0.214,0.168
1711539121.379,8.359,-6.833,2.402,0.008,0.221,0.16
1711539121.485,8.39,-6.828,2.342,0.008,0.244,0.16
1711539121.591,8.347,-6.85,2.146,0.046,0.267,0.183
1711539121.696,8.359,-6.917,2.357,0.031,0.267,0.191
1711539121.802,8.354,-6.816,2.316,0.008,0.252,0.176
1711539121.908,8.344,-6.926,2.405,0.008,0.214,0.168
1711539122.014,8.239,-6.912,2.448,0.015,0.237,0.198
1711539122.119,8.395,-6.826,2.371,0.023,0.198,0.168
1711539122.225,8.313,-6.845,2.256,0.031,0.229,0.191
1711539122.33,8.32,-6.857,2.261,0.008,0.26,0.206
1711539122.436,8.392,-6.895,2.385,-1.947,0.252,0.176
1711539122.541,8.426,-6.859,2.323,0.023,0.237,0.168
1711539122.646,8.335,-6.819,2.314,0.031,0.237,0.183
1711539122.752,8.287,-6.893,2.366,0.023,0.229,0.198
1711539122.858,8.421,-6.881,2.318,0.046,0.237,0.168
1711539122.964,8.375,-6.843,2.421,0.031,0.237,0.145
1711539123.069,8.344,-6.883,2.371,0.038,0.122,0.16
1711539123.175,8.359,-6.84,2.196,0.015,0.26,0.183
1711539123.281,8.301,-6.838,2.376,0.023,0.229,0.16
1711539123.386,8.383,-6.864,2.448,0.023,0.214,0.153
1711539123.492,8.373,-6.852,2.354,-1.954,0.282,0.168
1711539123.597,8.402,-6.852,2.373,0.023,0.221,0.16
1711539123.703,8.392,-6.855,2.381,0.008,0.305,0.191
1711539123.808,8.371,-6.881,2.395,0.0,0.191,0.168
1711539123.914,8.371,-6.926,2.405,0.046,0.252,0.16
1711539124.02,8.39,-6.857,2.414,0.023,0.244,0.183
1711539124.125,8.359,-6.823,2.366,0.0,0.252,0.183
1711539124.231,8.356,-6.888,2.383,0.023,0.206,0.168
1711539124.337,8.344,-6.852,2.378,0.023,0.221,0.168
1711539124.443,8.375,-6.85,2.429,0.023,0.275,0.191
1711539124.548,8.304,-6.864,2.352,0.015,0.214,0.153
1711539124.654,8.395,-6.833,2.445,0.031,0.221,0.176
1711539124.76,8.344,-6.838,2.455,0.015,0.252,0.191
1711539124.866,8.337,-6.871,2.328,0.023,0.206,0.191
1711539124.971,8.392,-6.876,2.359,0.053,0.244,0.16
1711539125.077,8.426,-6.893,2.321,0.015,0.229,0.176
1711539125.183,8.397,-6.828,2.393,0.015,0.237,0.153
1711539125.289,8.361,-6.883,2.385,0.008,0.198,0.176
1711539125.394,8.351,-6.855,2.541,0.046,0.252,0.176
1711539125.5,8.292,-7.025,2.491,0.015,0.198,0.183
1711539125.606,8.366,-6.845,2.357,1.947,0.214,0.16
1711539125.712,8.347,-6.78,2.297,0.023,0.252,0.176
1711539125.817,8.371,-6.931,2.402,0.046,0.244,0.183
1711539125.923,8.363,-6.902,2.448,0.015,0.244,0.191
1711539126.029,8.387,-6.838,2.354,0.023,0.267,0.168
1711539126.135,8.366,-6.886,2.34,0.0,0.237,0.191
1711539126.24,8.347,-6.857,2.208,0.038,0.221,0.153
1711539126.346,8.304,-6.807,2.33,0.015,0.191,0.176
1711539126.452,8.938,-6.397,-0.697,-0.031,0.702,0.092
1711539126.557,8.248,-7.084,2.239,0.038,0.87,0.183
1711539126.663,8.32,-6.816,2.491,0.023,0.115,0.168
1711539126.768,8.397,-6.871,2.33,0.015,0.298,0.183
1711539126.874,8.567,-6.823,2.311,0.023,0.214,0.191
1711539126.979,8.342,-6.931,2.4,0.031,0.237,0.16
1711539127.085,8.411,-6.867,2.373,0.038,0.229,0.191
1711539127.19,8.395,-7.029,2.438,0.008,0.267,0.176
1711539127.296,8.311,-6.857,2.333,0.015,0.214,0.183
1711539127.402,8.428,-6.673,2.668,0.031,-0.008,0.191
1711539127.508,8.402,-6.754,2.239,0.008,0.198,0.183
1711539127.614,8.411,-6.833,2.342,0.015,0.244,0.191
1711539127.719,8.124,-6.867,1.926,0.015,0.107,0.198
1711539127.825,8.418,-6.79,2.345,0.031,0.13,0.16
1711539127.931,8.349,-6.869,2.429,0.038,0.168,0.168
1711539128.037,9.161,-6.684,2.896,1.939,1.023,0.13
1711539128.142,7.619,-6.886,1.679,0.038,1.931,0.252
1711539128.248,8.05,-6.893,2.076,0.031,0.252,0.221
1711539128.354,8.771,-7.187,2.845,0.053,0.863,0.145
1711539128.46,8.428,-6.78,2.376,0.008,0.344,0.198
1711539128.566,8.284,-6.747,2.373,0.008,0.435,0.16
1711539128.671,8.363,-6.864,1.89,0.023,0.038,0.168
1711539128.777,8.191,-6.905,2.014,0.046,-0.122,0.153
1711539128.883,8.366,-6.493,1.77,0.023,0.046,0.183
1711539128.989,8.414,-7.013,2.235,0.023,0.13,0.153
1711539129.095,8.277,-6.986,2.381,0.0,0.282,0.176
1711539129.201,8.351,-6.867,2.33,0.008,0.168,0.16
1711539129.307,8.533,-6.809,2.242,0.023,0.366,0.16
1711539129.413,8.378,-6.881,2.338,0.038,0.176,0.176
1711539129.518,8.306,-6.828,2.244,0.038,0.176,0.183
1711539129.624,8.32,-6.816,2.414,0.053,0.252,0.153
1711539129.73,10.006,-6.567,2.16,0.038,0.634,0.031
1711539129.835,8.349,-6.826,2.539,-1.954,0.076,0.191
1711539129.94,8.474,-6.931,1.978,1.947,1.275,0.183
1711539130.046,8.236,-6.936,2.529,0.038,-0.076,0.191
1711539130.151,7.829,-6.867,1.444,0.023,-0.916,0.206
1711539130.257,8.292,-6.838,2.359,0.0,0.366,0.168
1711539130.362,8.368,-6.871,2.498,0.038,0.122,0.145
1711539130.468,8.349,-6.941,2.548,0.031,0.359,0.183
1711539130.574,8.469,-6.926,2.412,0.031,0.237,0.183
1711539130.68,8.438,-6.831,2.259,0.031,0.237,0.176
1711539130.785,8.399,-6.814,2.369,0.053,0.244,0.183
1711539130.891,8.433,-7.072,2.438,0.008,0.221,0.206
1711539130.997,8.407,-6.917,2.256,0.023,0.176,0.183
1711539131.103,8.471,-6.907,2.481,0.015,0.313,0.16
1711539131.209,8.387,-6.835,2.467,0.015,0.191,0.16
1711539131.314,8.39,-6.807,2.524,0.015,0.336,0.176
1711539131.42,8.488,-6.828,1.871,0.008,0.504,0.191
1711539131.526,8.38,-6.859,2.534,0.023,0.183,0.191
1711539131.632,8.483,-7.142,2.855,0.038,0.374,0.16
1711539131.738,8.423,-6.924,2.4,0.038,-0.13,0.122
1711539131.844,8.359,-6.833,2.184,0.008,0.344,0.168
1711539131.949,8.373,-6.864,2.414,0.008,0.267,0.176
1711539132.055,8.205,-6.878,3.238,0.061,0.504,0.176
1711539132.161,8.426,-6.881,1.643,-0.008,0.244,0.168
1711539132.267,8.15,-6.89,2.0,0.0,0.076,0.214
1711539132.372,8.459,-6.855,2.273,0.023,0.55,0.168
1711539132.478,8.282,-6.864,2.359,0.015,0.145,0.183
1711539132.584,8.38,-6.893,2.467,0.015,0.221,0.191
1711539132.691,8.339,-6.864,2.359,0.0,0.183,0.191
1711539132.797,8.318,-6.974,2.419,0.015,0.282,0.153
1711539132.903,8.186,-6.85,2.414,0.061,0.176,0.191
1711539133.009,8.359,-6.883,2.292,0.008,0.26,0.176
1711539133.114,8.342,-6.857,2.273,0.023,0.244,0.183
1711539133.22,8.313,-6.893,2.316,0.023,0.244,0.176
1711539133.326,8.375,-6.857,2.328,0.008,0.191,0.176
1711539133.432,8.325,-6.883,2.34,0.008,0.168,0.145
1711539133.538,8.289,-6.895,2.134,-0.015,0.328,0.168
1711539133.644,8.426,-6.852,2.424,0.031,0.244,0.16
1711539133.749,8.342,-6.804,2.381,0.023,0.198,0.176
1711539133.855,8.306,-6.905,2.182,0.008,0.237,0.153
1711539133.961,8.287,-6.843,2.393,0.015,0.198,0.183
1711539134.067,8.351,-7.005,2.227,0.015,0.298,0.191
1711539134.172,8.402,-6.811,2.338,0.008,0.237,0.16
1711539134.278,8.38,-6.857,2.191,0.023,0.183,0.176
1711539134.383,8.418,-6.828,2.448,0.023,0.321,0.16
1711539134.488,8.344,-6.807,2.294,0.023,0.13,0.145
1711539134.594,8.366,-6.876,2.23,0.015,0.344,0.183
1711539134.699,8.313,-6.905,2.27,0.015,0.046,0.191
1711539134.804,8.612,-6.768,2.862,0.031,0.656,0.168
1711539134.91,8.15,-6.84,2.182,0.031,0.099,0.183
1711539135.016,8.423,-6.888,2.328,0.031,0.229,0.183
1711539135.122,8.359,-6.833,2.414,0.046,0.214,0.183
1711539135.228,8.392,-7.041,2.256,-1.947,0.244,0.153
1711539135.334,8.344,-7.013,2.352,0.023,0.237,0.183
1711539135.439,8.363,-6.922,2.426,0.008,0.237,0.176
1711539135.545,8.574,-6.864,2.314,0.038,0.237,0.191
1711539135.651,8.313,-6.867,2.311,0.015,0.229,0.176
1711539135.757,8.318,-6.855,2.409,0.008,0.214,0.176
1711539135.863,8.421,-6.922,2.438,0.008,0.26,0.191
1711539135.968,8.344,-6.883,2.232,0.0,0.229,0.191
1711539136.074,8.378,-6.874,2.318,0.031,0.244,0.16
1711539136.18,8.387,-6.886,2.299,0.038,0.252,0.176
1711539136.286,8.368,-6.881,2.412,0.015,0.221,0.191
1711539136.392,8.378,-6.924,2.4,0.008,0.252,0.176
1711539136.497,8.383,-6.852,2.314,0.023,0.244,0.176
1711539136.603,8.351,-7.046,2.314,0.015,0.221,0.168
1711539136.709,8.169,-6.838,2.527,0.031,0.649,0.206
1711539136.815,8.404,-6.893,2.28,0.0,0.29,0.153
1711539136.92,8.301,-6.993,2.218,0.008,0.183,0.183
1711539137.026,8.375,-6.886,2.321,0.038,0.252,0.191
1711539137.132,8.356,-6.84,2.311,0.023,0.244,0.183
1711539137.237,8.366,-6.883,2.275,0.023,0.267,0.168
1711539137.343,8.371,-6.878,2.417,0.015,0.244,0.145
1711539137.448,8.325,-6.823,2.237,0.008,0.244,0.183
1711539137.554,8.43,-6.881,2.213,0.038,0.267,0.183
1711539137.659,8.306,-6.799,2.357,0.008,0.237,0.183
1711539137.764,8.318,-6.886,2.369,0.0,0.214,0.176
1711539137.87,8.416,-6.838,2.383,0.031,0.229,0.191
1711539137.976,8.486,-6.826,2.345,0.038,0.26,0.176
1711539138.082,8.332,-6.881,2.201,0.015,0.26,0.168
1711539138.188,8.342,-6.883,2.29,0.031,0.206,0.153
1711539138.293,8.342,-6.924,2.39,0.0,0.282,0.191
1711539138.399,8.421,-6.826,2.309,0.031,0.229,0.16
1711539138.505,8.308,-6.821,2.335,0.008,0.214,0.191
1711539138.611,8.356,-6.857,2.395,0.015,0.244,0.176
1711539138.717,8.299,-6.749,2.417,0.023,0.359,0.176
1711539138.822,8.416,-6.953,2.412,-0.008,0.229,0.16
1711539138.928,8.318,-6.847,2.388,0.031,0.198,0.176
1711539139.034,8.395,-6.977,2.302,0.038,0.237,0.176
1711539139.14,8.371,-6.888,2.294,0.023,0.237,0.176
1711539139.246,8.375,-6.85,2.335,0.038,0.214,0.183
1711539139.351,8.284,-6.867,2.35,0.038,0.237,0.153
1711539139.457,8.337,-6.874,2.371,0.0,0.26,0.168
1711539139.563,8.407,-6.878,2.007,0.015,0.26,0.176
1711539139.668,8.349,-6.869,2.112,0.015,0.458,0.168
1711539139.774,8.323,-6.852,2.424,0.031,0.267,0.176
1711539139.88,8.383,-6.867,2.402,0.0,0.214,0.176
1711539139.986,8.268,-7.029,2.211,0.023,0.214,0.168
1711539140.092,8.265,-6.869,2.577,0.015,0.122,0.214
1711539140.197,8.33,-6.972,2.213,0.008,0.191,0.183
1711539140.303,8.428,-6.821,2.148,0.031,0.26,0.168
1711539140.409,8.39,-6.811,2.421,0.008,0.26,0.183
1711539140.515,8.423,-6.845,2.448,0.031,0.214,0.183
1711539140.621,8.363,-6.881,2.354,0.015,0.237,0.168
1711539140.726,8.277,-6.795,2.318,0.015,0.244,0.176
1711539140.832,8.366,-6.9,2.311,0.023,0.237,0.153
1711539140.938,8.395,-6.833,2.417,0.008,0.244,0.191
1711539141.043,8.327,-6.816,2.421,0.008,0.214,0.176
1711539141.149,8.399,-6.893,2.268,0.008,0.237,0.176
1711539141.255,8.428,-6.859,2.364,0.015,0.26,0.153
1711539141.361,8.392,-6.898,2.366,0.015,0.298,0.153
1711539141.467,8.335,-6.922,2.407,0.023,0.237,0.183
1711539141.573,8.428,-6.857,2.249,0.023,0.29,0.168
1711539141.678,8.421,-6.886,2.33,0.023,0.26,0.153
1711539141.784,8.342,-6.869,2.376,0.023,0.206,0.183
1711539141.89,8.349,-6.89,2.407,0.023,0.229,0.183
1711539141.996,8.375,-6.867,2.369,0.008,0.229,0.168
1711539142.101,8.371,-6.857,2.445,0.031,0.191,0.183
1711539142.207,8.299,-6.917,2.189,0.023,0.176,0.176
1711539142.313,8.327,-6.752,2.299,0.031,0.267,0.176
1711539142.419,8.395,-6.783,2.316,0.008,0.366,0.183
1711539142.525,8.385,-6.847,2.316,0.031,0.191,0.198
1711539142.63,8.363,-7.025,2.338,0.053,0.252,0.183
1711539142.736,8.43,-6.917,2.388,0.008,0.275,0.145
1711539142.842,8.316,-6.859,2.524,0.008,0.244,0.183
1711539142.948,8.332,-6.878,2.311,0.0,0.237,0.16
1711539143.054,8.313,-6.931,2.34,0.015,0.221,0.168
1711539143.16,8.335,-6.833,2.227,0.008,0.313,0.191
1711539143.266,8.423,-6.893,2.333,0.015,0.267,0.176
1711539143.371,8.481,-6.914,2.474,0.015,0.267,0.168
1711539143.477,8.562,-7.02,2.316,0.023,0.237,0.16
1711539143.583,8.428,-6.881,2.642,0.0,0.229,0.191
1711539143.689,8.366,-6.895,2.436,0.038,0.176,0.183
1711539143.794,8.426,-6.821,2.338,0.023,0.221,0.191
1711539143.9,8.407,-6.859,2.187,0.038,0.221,0.176
1711539144.006,8.313,-6.934,2.342,0.031,0.244,0.176
1711539144.112,8.354,-7.049,2.35,-0.015,0.221,0.191
1711539144.217,8.373,-6.864,2.381,0.015,0.214,0.191
1711539144.323,8.371,-7.049,2.177,0.015,0.267,0.198
1711539144.428,8.495,-6.838,2.237,0.008,0.206,0.16
1711539144.533,8.366,-6.821,2.45,0.015,0.282,0.191
1711539144.639,8.342,-6.953,2.34,0.023,0.229,0.16
1711539144.744,8.349,-6.862,2.378,0.031,0.221,0.183
1711539144.85,8.354,-6.828,2.429,0.0,0.244,0.191
1711539144.955,8.397,-6.857,2.424,0.031,0.229,0.16
1711539145.061,8.404,-6.831,2.381,0.038,0.221,0.183
1711539145.167,8.385,-6.857,2.321,0.015,0.244,0.16
1711539145.273,8.423,-6.819,2.201,0.031,0.26,0.176
1711539145.379,8.316,-6.864,2.366,0.031,0.252,0.191
1711539145.485,8.356,-6.857,2.376,0.023,0.237,0.168
1711539145.59,8.373,-7.025,2.445,0.038,0.221,0.168
1711539145.696,8.342,-6.886,2.357,0.008,0.214,0.168
1711539145.802,8.392,-6.878,2.414,0.0,0.214,0.168
1711539145.908,8.378,-6.876,2.357,0.038,0.267,0.176
1711539146.013,8.342,-6.874,2.333,0.031,0.237,0.183
1711539146.119,8.349,-6.888,2.285,0.023,0.221,0.176
1711539146.225,8.402,-6.886,2.34,0.008,0.229,0.183
1711539146.331,8.299,-6.917,2.496,0.015,-0.023,0.198
1711539146.437,8.33,-6.91,2.086,0.031,0.237,0.176
1711539146.542,8.335,-6.893,2.306,0.008,0.214,0.183
1711539146.648,8.375,-6.85,2.467,0.031,0.214,0.176
1711539146.754,8.368,-6.886,2.467,0.008,0.244,0.176
1711539146.86,8.553,-6.845,2.297,0.046,0.214,0.191
1711539146.966,8.181,-6.931,2.783,0.008,0.55,0.221
1711539147.072,8.414,-6.893,2.338,0.015,0.237,0.176
1711539147.178,8.402,-6.859,2.326,0.031,0.229,0.168
1711539147.284,8.313,-6.886,2.345,1.947,0.244,0.153
1711539147.389,8.368,-6.89,2.309,0.015,0.237,0.183
1711539147.495,8.426,-6.886,2.338,0.023,0.214,0.183
1711539147.601,8.371,-6.862,2.412,0.023,0.214,0.206
1711539147.707,8.531,-6.783,2.357,0.023,0.221,0.176
1711539147.813,8.428,-6.878,2.51,0.015,0.237,0.168
1711539147.918,8.567,-6.886,2.378,0.015,0.244,0.153
1711539148.024,8.411,-6.893,2.345,0.023,0.244,0.191
1711539148.13,8.385,-6.85,2.321,0.038,0.229,0.176
1711539148.236,8.375,-6.833,2.371,0.038,0.252,0.183
1711539148.342,8.421,-7.02,2.34,0.031,0.26,0.176
1711539148.448,8.323,-6.895,2.299,0.023,0.229,0.176
1711539148.553,8.392,-6.871,2.275,0.038,0.267,0.16
1711539148.659,8.359,-6.826,2.395,0.023,0.122,0.176
1711539148.765,8.366,-6.778,2.261,0.015,0.382,0.176
1711539148.871,8.435,-6.883,2.352,0.038,0.252,0.145
1711539148.977,8.339,-6.907,2.436,0.0,0.214,0.176
1711539149.082,8.531,-6.795,2.309,0.023,0.206,0.168
1711539149.188,8.33,-6.871,2.364,0.038,0.275,0.168
1711539149.293,8.289,-6.826,2.438,0.0,0.153,0.176
1711539149.399,8.287,-6.998,2.292,0.031,0.206,0.176
1711539149.504,8.337,-6.922,2.323,0.0,0.214,0.198
1711539149.609,8.342,-6.886,2.352,0.0,0.229,0.168
1711539149.715,8.39,-6.802,2.354,0.0,0.221,0.16
1711539149.82,8.339,-6.881,2.4,0.031,0.305,0.168
1711539149.926,8.332,-6.89,2.438,0.038,0.221,0.191
1711539150.032,8.318,-6.852,2.378,0.015,0.237,0.176
1711539150.138,8.385,-6.998,2.371,0.015,0.244,0.183
1711539150.244,8.363,-6.85,2.333,0.023,0.237,0.153
1711539150.349,8.284,-6.867,2.299,0.038,0.244,0.191
1711539150.455,8.404,-6.867,2.393,0.023,0.252,0.176
1711539150.561,8.339,-7.013,2.39,0.038,0.237,0.176
1711539150.667,8.38,-6.898,2.254,0.008,0.244,0.183
1711539150.773,8.38,-6.905,2.196,0.015,0.206,0.198
1711539150.878,8.402,-6.843,2.321,0.031,0.282,0.168
1711539150.984,8.414,-6.835,2.328,0.015,0.221,0.168
1711539151.09,8.404,-6.895,2.335,0.053,0.229,0.183
1711539151.196,8.392,-6.898,2.388,0.015,0.267,0.16
1711539151.302,8.366,-6.852,2.347,0.023,0.244,0.176
1711539151.407,8.349,-6.862,2.347,0.023,0.267,0.176
1711539151.513,8.342,-6.867,2.445,0.0,0.26,0.16
1711539151.619,8.411,-6.864,2.441,0.038,0.229,0.176
1711539151.725,8.323,-6.859,2.436,0.015,0.229,0.168
1711539151.831,8.399,-6.85,2.323,0.0,0.214,0.168
1711539151.937,8.397,-6.799,2.306,0.0,0.229,0.176
1711539152.042,8.395,-6.881,2.309,0.015,0.237,0.176
1711539152.148,8.387,-6.878,2.167,0.023,0.351,0.176
1711539152.254,8.426,-6.857,2.385,0.015,0.26,0.168
1711539152.36,8.347,-6.869,2.417,0.0,0.237,0.176
1711539152.466,8.378,-6.831,2.282,0.023,0.275,0.168
1711539152.571,8.292,-6.783,2.314,0.015,0.252,0.168
1711539152.677,8.392,-6.864,2.453,0.023,0.26,0.16
1711539152.782,8.387,-6.852,2.402,0.015,0.221,0.183
1711539152.888,8.361,-6.845,2.249,0.031,0.244,0.176
1711539152.993,8.373,-6.912,2.373,0.015,0.145,0.168
1711539153.098,8.442,-7.013,2.29,0.023,0.206,0.183
1711539153.204,8.395,-6.898,2.189,0.023,0.214,0.153
1711539153.31,8.385,-6.869,2.299,0.031,0.267,0.176
1711539153.416,8.392,-6.876,2.373,0.031,0.221,0.176
1711539153.522,8.337,-6.864,2.421,0.023,0.26,0.16
1711539153.627,8.356,-6.84,2.335,0.0,0.244,0.168
1711539153.733,8.342,-6.855,2.28,0.015,0.282,0.198
1711539153.838,8.359,-6.905,2.287,0.008,0.206,0.183
1711539153.944,8.375,-6.864,2.378,0.015,0.214,0.16
1711539154.049,8.354,-6.905,2.342,0.038,0.221,0.168
1711539154.154,8.344,-6.823,2.4,0.031,0.229,0.198
1711539154.26,8.356,-6.855,2.515,0.038,0.092,0.191
1711539154.366,8.299,-6.902,2.297,0.0,0.115,0.16
1711539154.471,8.409,-6.847,2.208,0.023,0.313,0.16
1711539154.577,8.399,-6.862,2.393,0.023,0.229,0.176
1711539154.683,8.349,-6.878,2.266,0.0,0.214,0.176
1711539154.789,8.395,-6.89,2.354,0.023,0.237,0.168
1711539154.895,8.371,-6.878,2.318,0.015,0.244,0.168
1711539155.0,8.356,-6.835,2.316,0.038,0.244,0.183
1711539155.106,8.404,-6.821,2.409,0.015,0.214,0.176
1711539155.212,8.407,-6.878,2.29,0.015,0.26,0.183
1711539155.318,8.366,-6.847,2.311,0.031,0.229,0.176
1711539155.423,8.385,-6.874,2.256,0.015,0.252,0.168
1711539155.529,8.428,-6.826,2.376,0.031,0.229,0.183
1711539155.635,8.359,-6.811,2.369,1.947,0.214,0.183
1711539155.741,8.342,-6.888,2.316,0.023,0.221,0.176
1711539155.847,8.316,-6.831,2.282,0.008,0.221,0.145
1711539155.953,8.392,-6.886,2.333,0.008,0.237,0.168
1711539156.059,8.445,-6.876,2.371,0.023,0.267,0.198
1711539156.164,8.38,-6.807,2.412,0.008,0.344,0.168
1711539156.27,8.349,-6.843,2.354,0.038,0.237,0.176
1711539156.376,8.375,-6.874,2.299,0.031,0.229,0.168
1711539156.482,8.407,-6.924,2.364,0.015,0.237,0.168
1711539156.588,8.339,-6.749,2.326,0.008,0.214,0.183
1711539156.694,8.402,-6.914,2.309,0.015,0.252,0.168
1711539156.8,8.337,-6.828,2.345,0.015,0.229,0.16
1711539156.905,8.411,-6.878,2.4,0.031,0.267,0.168
1711539157.011,8.416,-7.044,2.311,0.0,0.237,0.168
1711539157.117,8.349,-6.847,2.306,0.046,0.26,0.176
1711539157.223,8.351,-6.826,2.393,0.023,0.229,0.183
1711539157.328,8.277,-6.895,2.378,0.015,0.252,0.183
1711539157.434,8.316,-6.759,2.354,0.008,0.137,0.176
1711539157.54,8.327,-6.843,2.232,0.015,0.267,0.183
1711539157.646,8.402,-6.893,2.352,0.015,0.252,0.16
1711539157.751,8.399,-6.905,2.419,0.008,0.221,0.183
1711539157.857,8.359,-6.85,2.335,0.015,0.26,0.153
1711539157.963,8.361,-6.857,2.34,0.015,0.229,0.183
1711539158.069,8.387,-6.852,2.39,0.031,0.221,0.176
1711539158.175,8.339,-6.874,2.357,0.023,0.237,0.168
1711539158.28,8.421,-6.852,2.333,0.023,0.275,0.183
1711539158.386,8.344,-6.847,2.292,0.0,0.275,0.168
1711539158.492,8.325,-6.819,2.321,0.015,0.282,0.16
1711539158.598,8.371,-6.852,2.364,0.008,0.26,0.191
1711539158.704,8.318,-6.871,2.33,0.015,0.221,0.176
1711539158.81,8.373,-6.845,2.4,0.031,0.221,0.16
1711539158.916,8.387,-6.907,2.579,0.031,0.252,0.176
1711539159.021,8.375,-6.883,2.311,0.015,0.13,0.176
1711539159.127,8.387,-6.857,2.316,0.038,0.229,0.198
1711539159.233,8.277,-6.914,2.316,0.038,0.26,0.168
1711539159.339,8.287,-6.859,2.385,0.023,0.252,0.176
1711539159.445,8.32,-7.015,2.4,0.023,0.252,0.183
1711539159.55,8.366,-6.869,2.393,0.015,0.252,0.183
1711539159.656,8.383,-6.878,2.393,0.031,0.252,0.214
1711539159.762,8.414,-6.754,2.34,0.023,0.244,0.183
1711539159.868,8.289,-6.761,2.261,0.008,0.244,0.183
1711539159.973,8.347,-6.864,2.383,0.0,0.214,0.176
1711539160.079,8.426,-6.869,2.27,0.015,0.229,0.176
1711539160.185,8.397,-6.893,2.381,0.015,0.229,0.168
1711539160.291,8.282,-6.874,2.33,0.038,0.206,0.191
1711539160.397,8.344,-6.878,2.407,0.031,0.16,0.16
1711539160.502,8.476,-6.843,2.069,0.015,0.336,0.137
1711539160.608,8.411,-6.907,2.306,0.015,0.275,0.191
1711539160.714,8.366,-6.869,2.335,0.053,0.252,0.191
1711539160.82,8.392,-6.905,2.347,0.023,0.198,0.191
1711539160.926,8.402,-6.871,2.318,0.031,0.229,0.183
1711539161.031,8.363,-6.905,2.316,0.008,0.244,0.168
1711539161.137,8.418,-6.859,2.357,0.023,0.244,0.176
1711539161.243,8.562,-6.855,2.306,0.008,0.26,0.183
1711539161.349,8.327,-6.819,2.323,0.023,0.244,0.16
1711539161.455,8.385,-6.876,2.429,0.015,0.229,0.145
1711539161.56,8.366,-6.862,2.318,0.0,0.221,0.168
1711539161.666,8.344,-6.893,2.345,0.008,0.237,0.16
1711539161.772,8.368,-6.898,2.299,0.015,0.26,0.168
1711539161.878,8.359,-6.871,2.397,1.947,0.229,0.191
1711539161.984,8.347,-6.886,2.33,-1.947,0.221,0.168
1711539162.089,8.39,-6.905,2.323,0.031,0.244,0.168
1711539162.195,8.354,-6.893,2.309,0.0,0.26,0.176
1711539162.301,8.351,-6.886,2.366,0.046,0.229,0.16
1711539162.407,8.325,-6.843,2.364,0.008,0.252,0.206
1711539162.512,8.409,-6.898,2.373,0.008,0.221,0.191
1711539162.618,8.378,-6.874,2.28,0.015,0.26,0.183
1711539162.724,8.409,-6.845,2.378,0.031,0.221,0.168
1711539162.83,8.318,-6.898,2.424,0.015,0.237,0.198
1711539162.935,8.368,-6.845,2.414,0.015,0.221,0.191
1711539163.041,8.366,-6.926,2.153,0.031,0.221,0.16
1711539163.147,8.397,-6.888,2.35,0.031,0.221,0.206
1711539163.253,8.378,-6.852,2.335,0.015,0.275,0.198
1711539163.359,8.361,-6.855,2.361,0.015,0.237,0.183
1711539163.464,8.332,-6.895,2.378,-1.947,0.229,0.168
1711539163.57,8.323,-6.914,2.34,0.015,0.244,0.176
1711539163.676,8.366,-7.022,2.223,0.015,0.26,0.168
1711539163.782,8.366,-6.876,2.35,0.023,0.26,0.176
1711539163.888,8.354,-6.881,2.335,0.046,0.214,0.176
1711539163.993,8.435,-7.034,2.424,0.046,0.244,0.183
1711539164.099,8.368,-6.881,2.16,0.015,0.214,0.191
1711539164.205,8.385,-6.883,2.385,0.008,0.267,0.214
1711539164.31,8.332,-6.859,2.318,0.023,0.252,0.176
1711539164.415,8.407,-6.883,2.297,0.015,0.244,0.183
1711539164.521,8.421,-6.814,2.405,0.008,0.237,0.176
1711539164.626,8.385,-6.857,2.443,0.038,0.275,0.176
1711539164.732,8.368,-6.878,2.347,0.015,0.229,0.168
1711539164.837,8.38,-6.871,2.297,0.0,0.221,0.176
1711539164.943,8.375,-6.847,2.354,0.038,0.214,0.176
1711539165.049,8.385,-6.907,2.345,0.015,0.214,0.191
1711539165.154,8.361,-6.814,2.287,0.031,0.244,0.168
1711539165.26,8.404,-6.929,2.421,0.008,0.252,0.183
1711539165.366,8.289,-6.84,2.342,0.0,0.237,0.191
1711539165.471,8.359,-7.037,2.242,0.023,0.237,0.198
1711539165.577,8.371,-7.046,2.395,0.031,0.229,0.168
1711539165.683,8.349,-6.845,2.395,0.046,0.237,0.183
1711539165.789,8.332,-6.91,2.266,0.008,0.26,0.168
1711539165.895,8.359,-6.749,2.27,0.015,0.237,0.168
1711539166.001,8.38,-6.878,2.314,0.023,0.252,0.176
1711539166.106,8.411,-6.888,2.445,0.015,0.237,0.176
1711539166.212,8.234,-6.886,2.167,0.038,0.298,0.168
1711539166.318,8.33,-6.888,2.211,0.0,0.214,0.176
1711539166.424,8.366,-6.895,2.419,0.023,0.313,0.16
1711539166.53,8.387,-6.886,2.563,0.023,0.198,0.176
1711539166.635,8.363,-6.878,2.383,0.015,0.221,0.198
1711539166.741,8.385,-6.871,2.309,0.015,0.229,0.176
1711539166.847,8.282,-6.764,2.256,0.015,0.168,0.191
1711539166.953,8.32,-6.752,2.302,0.015,0.267,0.16
1711539167.059,8.361,-6.838,2.314,-1.947,0.229,0.168
1711539167.164,8.399,-6.869,2.316,-0.008,0.206,0.191
1711539167.27,8.347,-6.749,2.381,0.008,0.206,0.176
1711539167.376,8.383,-6.859,2.287,0.031,0.237,0.176
1711539167.482,8.361,-6.84,2.443,0.023,0.267,0.176
1711539167.588,8.378,-6.828,2.405,0.015,0.198,0.168
1711539167.693,8.351,-6.792,2.419,0.023,0.237,0.176
1711539167.799,8.344,-6.838,2.23,0.023,0.214,0.168
1711539167.905,8.356,-6.855,2.333,0.008,0.267,0.168
1711539168.011,8.339,-6.881,2.359,0.023,0.252,0.168
1711539168.116,8.361,-6.845,2.441,0.015,0.267,0.176
1711539168.222,8.418,-6.867,2.302,0.023,0.214,0.191
1711539168.328,8.373,-7.032,2.414,0.023,0.237,0.168
1711539168.434,8.366,-6.871,2.352,0.023,0.221,0.191
1711539168.54,8.409,-7.027,2.412,0.023,0.237,0.183
1711539168.645,8.349,-6.881,2.579,0.038,0.214,0.176
1711539168.751,8.325,-6.931,2.139,0.031,0.305,0.198
1711539168.857,8.354,-6.859,2.35,-1.954,0.206,0.168
1711539168.963,8.38,-6.761,2.189,0.031,0.282,0.168
1711539169.069,8.399,-6.938,2.345,0.015,0.305,0.183
1711539169.175,8.325,-6.847,2.405,0.023,0.221,0.16
1711539169.28,8.378,-6.857,2.345,0.023,0.26,0.153
1711539169.385,8.323,-6.816,2.429,0.023,0.168,0.176
1711539169.491,8.385,-6.898,2.314,0.023,0.237,0.191
1711539169.596,8.387,-6.914,1.329,0.008,0.893,0.176
1711539169.702,8.301,-6.914,2.338,0.0,-0.038,0.183
1711539169.807,8.387,-6.814,2.215,0.023,0.313,0.183
1711539169.913,8.122,-6.888,2.287,0.008,0.107,0.168
1711539170.018,8.493,-6.883,2.378,0.031,0.244,0.183
1711539170.124,8.438,-6.91,2.314,0.023,0.267,0.206
1711539170.231,8.409,-6.869,2.247,0.015,0.252,0.16
1711539170.337,8.38,-6.955,2.357,0.046,0.275,0.176
1711539170.442,8.344,-6.886,2.388,0.023,0.229,0.153
1711539170.547,8.399,-6.902,2.292,0.015,0.221,0.153
1711539170.653,8.423,-6.867,2.424,0.031,0.214,0.176
1711539170.758,8.383,-6.881,2.323,0.023,0.191,0.191
1711539170.864,8.373,-6.855,2.383,0.038,0.229,0.168
1711539170.969,8.418,-6.874,2.479,0.023,0.252,0.183
1711539171.075,8.33,-6.857,2.414,0.015,0.183,0.191
1711539171.181,8.316,-6.874,2.35,0.031,0.282,0.16
1711539171.286,8.193,-6.845,2.218,-0.008,0.061,0.221
1711539171.392,8.435,-6.855,2.115,0.015,0.389,0.176
1711539171.498,8.311,-6.783,2.747,0.031,0.191,0.198
1711539171.604,8.299,-6.843,2.409,0.0,0.191,0.145
1711539171.71,8.45,-6.902,2.299,0.015,0.191,0.168
1711539171.816,8.392,-6.931,2.335,0.023,0.237,0.183
1711539171.922,8.383,-6.828,2.371,0.023,0.244,0.176
1711539172.028,8.395,-6.862,2.407,0.023,0.221,0.183
1711539172.134,8.397,-6.874,2.438,0.023,0.206,0.153
1711539172.24,8.351,-6.833,2.395,0.0,0.26,0.176
1711539172.346,8.359,-6.895,2.311,0.031,0.229,0.176
1711539172.451,8.383,-6.883,2.34,0.015,0.237,0.168
1711539172.557,8.308,-6.871,2.421,0.015,0.229,0.168
1711539172.663,8.335,-6.876,2.287,0.0,0.229,0.176
1711539172.769,8.38,-6.912,2.366,0.031,0.244,0.176
1711539172.875,8.423,-6.924,2.366,0.015,0.229,0.16
1711539172.981,8.383,-6.862,2.266,0.0,0.221,0.16
1711539173.086,8.378,-6.857,2.381,0.046,0.244,0.176
1711539173.192,8.356,-6.85,2.285,0.023,0.244,0.183
1711539173.298,8.411,-6.835,2.395,0.046,0.229,0.183
1711539173.404,8.361,-6.862,2.441,0.015,0.282,0.176
1711539173.509,8.232,-6.857,2.517,0.031,0.183,0.183
1711539173.616,8.349,-6.878,2.328,0.015,0.145,0.191
1711539173.721,8.371,-6.831,2.326,1.947,0.26,0.168
1711539173.827,8.289,-6.924,2.342,0.0,0.275,0.16
1711539173.933,8.404,-6.847,2.373,0.015,0.229,0.176
1711539174.039,8.349,-6.91,2.225,0.031,0.244,0.183
1711539174.144,8.33,-6.859,2.347,0.015,0.252,0.168
1711539174.25,8.351,-7.015,2.275,0.0,0.214,0.168
1711539174.356,8.292,-6.826,2.151,0.023,0.237,0.176
1711539174.461,8.414,-6.833,2.352,0.031,0.244,0.198
1711539174.567,8.323,-6.754,2.321,0.015,0.267,0.168
1711539174.673,8.38,-6.852,2.309,0.023,0.237,0.176
1711539174.778,8.129,-6.814,2.953,0.031,-1.893,0.206
1711539174.884,8.375,-6.9,2.144,0.031,0.221,0.16
1711539174.99,7.901,-7.219,4.558,0.015,-1.702,0.26
1711539175.096,8.438,-6.914,1.77,0.046,0.389,0.153
1711539175.202,8.356,-6.792,2.546,0.015,0.252,0.176
1711539175.307,8.354,-6.783,2.275,0.023,0.206,0.183
1711539175.413,8.354,-6.869,2.4,0.038,0.267,0.176
1711539175.519,8.383,-6.905,2.357,0.023,0.206,0.191
1711539175.624,8.339,-6.893,2.35,1.947,0.206,0.183
1711539175.73,8.375,-6.855,2.282,0.038,0.26,0.176
1711539175.836,8.38,-6.84,2.443,0.008,0.244,0.168
1711539175.941,8.387,-6.833,2.397,0.023,0.198,0.198
1711539176.047,8.397,-6.754,2.773,0.069,-0.176,0.176
1711539176.154,8.387,-6.905,2.239,0.015,0.214,0.183
1711539176.259,8.442,-6.874,2.285,1.939,0.237,0.183
1711539176.365,8.354,-6.835,2.405,0.038,0.26,0.176
1711539176.471,8.395,-6.857,2.357,0.015,0.221,0.168
1711539176.577,8.289,-6.816,2.35,0.008,0.397,0.16
1711539176.683,8.342,-7.049,2.496,0.023,0.168,0.183
1711539176.789,8.351,-7.039,2.254,0.015,0.229,0.198
1711539176.894,8.395,-6.886,2.342,0.038,0.221,0.176
1711539177.0,8.476,-6.855,2.275,0.031,0.221,0.176
1711539177.106,8.387,-6.754,2.316,0.031,0.221,0.176
1711539177.212,8.349,-6.852,2.328,0.038,0.229,0.176
1711539177.318,8.347,-6.855,2.215,0.015,0.145,0.191
1711539177.423,8.428,-6.893,2.194,0.031,0.305,0.16
1711539177.529,8.359,-6.859,2.259,0.008,0.282,0.176
1711539177.635,8.354,-6.859,2.409,0.023,0.214,0.191
1711539177.741,8.363,-6.912,2.493,0.023,0.244,0.153
1711539177.846,8.368,-6.84,2.395,0.031,0.183,0.16
1711539177.952,8.363,-6.893,2.285,0.015,0.229,0.206
1711539178.058,8.332,-6.888,2.405,0.023,0.206,0.198
1711539178.164,8.383,-6.845,2.321,0.015,0.244,0.16
1711539178.269,8.373,-6.955,2.266,0.031,0.252,0.176
1711539178.375,8.435,-6.855,2.407,0.046,0.183,0.168
1711539178.481,8.335,-6.914,2.328,0.038,0.359,0.183
1711539178.587,8.395,-6.867,2.196,0.023,0.206,0.16
1711539178.692,8.39,-6.778,2.287,0.0,0.244,0.198
1711539178.798,8.371,-6.845,2.433,0.008,0.221,0.191
1711539178.904,8.361,-6.811,2.247,0.015,0.16,0.145
1711539179.01,8.354,-6.847,2.29,0.038,0.221,0.176
1711539179.116,8.368,-6.838,2.421,0.031,0.244,0.168
1711539179.221,8.383,-7.025,2.589,0.015,0.198,0.168
1711539179.327,8.361,-6.855,2.385,0.031,0.115,0.183
1711539179.433,8.33,-6.924,2.309,0.015,0.206,0.198
1711539179.538,8.337,-6.881,2.275,0.031,0.252,0.183
1711539179.644,8.32,-6.857,2.299,0.023,0.244,0.176
1711539179.75,8.354,-6.878,2.299,0.008,0.237,0.191
1711539179.856,8.375,-6.819,2.055,0.008,0.504,0.168
1711539179.962,8.407,-6.878,2.599,0.031,0.282,0.168
1711539180.067,8.402,-6.802,2.512,0.008,0.282,0.198
1711539180.173,8.366,-6.867,2.443,0.053,0.16,0.168
1711539180.279,8.339,-6.828,2.359,0.038,0.237,0.168
1711539180.385,8.359,-6.833,2.287,0.008,0.229,0.16
1711539180.491,8.344,-6.843,2.285,0.015,0.229,0.153
1711539180.596,8.356,-6.811,2.328,0.038,0.252,0.198
1711539180.702,8.359,-6.886,2.345,0.038,0.229,0.168
1711539180.808,8.33,-6.946,2.342,0.053,0.214,0.183
1711539180.913,8.418,-6.807,2.156,0.008,0.214,0.176
1711539181.019,8.359,-6.864,2.287,0.046,0.282,0.183
1711539181.124,8.409,-6.934,2.35,0.008,0.229,0.183
1711539181.23,8.409,-6.811,2.369,0.023,0.214,0.176
1711539181.335,8.342,-6.91,2.397,0.046,0.198,0.153
1711539181.44,8.332,-6.898,2.527,0.015,0.237,0.191
1711539181.546,8.313,-7.046,2.539,0.023,0.176,0.168
1711539181.651,8.294,-6.807,2.414,-1.954,0.252,0.183
1711539181.757,8.375,-6.876,2.373,0.015,0.237,0.176
1711539181.863,8.368,-6.785,2.213,0.031,0.237,0.183
1711539181.969,8.421,-6.847,2.373,0.023,0.229,0.183
1711539182.075,8.318,-7.02,2.167,0.038,0.229,0.183
1711539182.181,8.349,-6.867,2.335,0.038,0.244,0.191
1711539182.286,8.373,-6.89,2.338,0.008,0.237,0.168
1711539182.392,8.361,-6.864,2.364,0.031,0.244,0.191
1711539182.498,8.323,-6.864,2.385,0.008,0.244,0.168
1711539182.604,8.418,-6.855,2.055,0.0,0.015,0.176
1711539182.709,8.407,-6.859,2.426,0.046,0.275,0.198
1711539182.815,8.402,-6.85,2.445,0.015,0.275,0.16
1711539182.921,8.284,-6.881,2.582,0.008,0.229,0.168
1711539183.027,8.404,-6.917,2.515,0.023,0.252,0.16
1711539183.133,8.311,-6.893,2.407,0.031,0.229,0.191
1711539183.238,8.385,-6.871,2.208,0.0,0.29,0.214
1711539183.344,8.316,-6.752,2.357,0.023,0.198,0.176
1711539183.449,8.418,-6.926,2.338,0.008,0.244,0.168
1711539183.555,8.399,-6.747,2.364,0.008,0.145,0.168
1711539183.66,8.433,-6.864,2.11,0.038,0.344,0.176
1711539183.766,8.395,-6.816,2.342,0.015,0.244,0.16
1711539183.871,8.363,-6.864,2.369,0.008,0.176,0.168
1711539183.976,8.359,-6.852,2.323,0.008,0.221,0.168
1711539184.082,8.392,-6.895,2.361,0.008,0.26,0.176
1711539184.188,8.337,-6.893,2.175,0.023,0.252,0.168
1711539184.293,8.361,-6.828,2.304,-1.954,0.252,0.168
1711539184.399,8.395,-6.833,2.441,0.031,0.26,0.191
1711539184.505,8.371,-6.857,2.328,0.015,0.229,0.176
1711539184.611,8.33,-6.852,2.297,0.053,0.252,0.176
1711539184.717,8.361,-6.828,2.35,0.0,0.221,0.198
1711539184.822,8.332,-6.864,2.438,0.008,0.214,0.176
1711539184.928,8.363,-6.761,2.347,0.053,0.244,0.176
1711539185.034,8.342,-6.874,2.256,0.031,0.252,0.168
1711539185.14,8.402,-6.874,2.433,0.031,0.183,0.16
1711539185.245,8.395,-6.886,2.223,1.947,0.237,0.168
1711539185.351,8.361,-6.84,2.419,0.008,0.244,0.16
1711539185.457,8.814,-6.857,1.209,0.008,0.947,0.16
1711539185.563,8.26,-6.847,2.905,0.038,-0.031,0.183
1711539185.669,8.294,-6.79,2.153,0.031,0.122,0.176
1711539185.774,8.256,-6.893,2.314,0.015,0.275,0.183
1711539185.88,8.402,-6.96,2.335,0.038,0.244,0.176
1711539185.986,8.337,-7.015,2.321,0.023,0.237,0.183
1711539186.091,8.351,-6.845,2.328,0.023,0.229,0.183
1711539186.197,8.337,-6.857,2.304,0.053,0.168,0.16
1711539186.303,8.284,-6.749,2.378,0.031,0.229,0.16
1711539186.409,8.356,-6.934,2.371,0.038,0.221,0.183
1711539186.514,8.359,-6.747,2.373,-0.023,0.237,0.183
1711539186.62,8.383,-6.881,2.361,0.015,0.237,0.168
1711539186.726,8.344,-6.857,2.381,0.031,0.229,0.183
1711539186.832,8.337,-7.032,2.402,0.023,0.237,0.176
1711539186.937,8.39,-6.867,2.369,0.008,0.26,0.176
1711539187.043,8.368,-6.833,2.345,0.031,0.237,0.176
1711539187.148,8.32,-6.787,2.263,0.008,0.221,0.183
1711539187.253,8.327,-7.049,2.354,0.015,0.229,0.16
1711539187.359,8.366,-6.79,2.321,0.023,0.191,0.168
1711539187.464,8.385,-6.828,2.318,0.0,0.221,0.16
1711539187.569,8.33,-6.89,2.373,0.015,0.214,0.168
1711539187.675,8.344,-6.883,2.297,0.038,0.237,0.176
1711539187.781,8.363,-6.888,2.357,0.015,0.244,0.176
1711539187.887,8.354,-7.008,2.342,0.015,0.206,0.176
1711539187.992,8.363,-6.878,2.287,0.015,0.26,0.206
1711539188.098,8.337,-6.828,2.376,0.031,0.191,0.176
1711539188.204,8.402,-6.883,2.266,0.015,0.275,0.168
1711539188.31,8.337,-6.838,2.342,0.023,0.26,0.176
1711539188.416,8.371,-6.874,2.4,0.031,0.252,0.168
1711539188.521,8.385,-6.859,2.35,0.023,0.145,0.198
1711539188.627,8.383,-6.859,2.393,0.008,0.214,0.198
1711539188.733,8.172,-6.776,2.342,0.031,0.145,0.198
1711539188.838,8.395,-6.847,2.352,0.015,0.282,0.176
1711539188.944,8.395,-6.855,2.287,0.038,0.26,0.168
1711539189.05,8.397,-6.962,2.405,0.023,0.198,0.191
1711539189.156,8.414,-6.862,2.318,0.015,0.221,0.153
1711539189.261,8.402,-6.768,2.366,0.015,0.229,0.183
1711539189.367,8.306,-6.869,2.429,0.046,0.221,0.183
1711539189.472,8.361,-7.046,2.316,0.038,0.252,0.168
1711539189.577,8.407,-6.95,2.448,0.008,0.229,0.168
1711539189.683,8.213,-6.876,2.443,0.023,0.229,0.168
1711539189.788,8.414,-6.747,2.39,0.0,0.229,0.183
1711539189.894,8.435,-6.859,2.328,0.015,0.237,0.183
1711539190.0,8.354,-6.948,2.395,0.015,0.221,0.198
1711539190.105,8.318,-6.754,2.361,0.0,0.229,0.191
1711539190.211,8.289,-6.888,2.203,0.015,0.214,0.176
1711539190.317,8.395,-6.9,2.249,0.015,0.267,0.176
1711539190.422,8.371,-6.811,2.275,0.023,0.26,0.183
1711539190.528,8.545,-6.871,2.318,0.023,0.244,0.16
1711539190.634,8.404,-6.946,2.275,0.008,0.267,0.183
1711539190.74,8.402,-6.883,2.397,0.023,0.237,0.191
1711539190.846,8.366,-6.809,2.278,0.008,0.237,0.183
1711539190.951,8.378,-6.819,2.338,0.023,0.244,0.176
1711539191.057,8.409,-6.862,2.225,0.031,0.275,0.168
1711539191.163,8.351,-7.025,2.462,0.031,0.282,0.145
1711539191.269,8.385,-6.871,2.397,0.023,0.252,0.183
1711539191.374,8.407,-6.852,2.352,0.015,0.252,0.183
1711539191.48,8.332,-6.874,2.359,0.015,0.229,0.191
1711539191.586,8.373,-6.876,2.213,0.023,0.237,0.191
1711539191.691,8.361,-6.835,2.345,0.015,0.26,0.176
1711539191.797,8.378,-6.855,2.4,0.038,0.221,0.191
1711539191.903,8.344,-6.857,2.433,0.023,0.221,0.191
1711539192.009,8.409,-6.778,2.51,0.046,0.252,0.176
1711539192.114,8.301,-6.867,2.393,0.023,0.206,0.183
1711539192.22,8.414,-6.907,2.35,0.023,0.176,0.168
1711539192.326,8.368,-6.883,2.273,0.031,0.267,0.168
1711539192.432,8.313,-7.013,2.376,1.947,0.214,0.168
1711539192.537,8.378,-6.819,2.378,0.008,0.26,0.16
1711539192.643,8.344,-6.924,2.309,0.023,0.26,0.16
1711539192.749,8.383,-6.847,2.29,0.023,0.252,0.191
1711539192.855,8.366,-6.929,2.361,0.038,0.214,0.176
1711539192.961,8.435,-6.874,2.326,0.031,0.221,0.183
1711539193.066,8.354,-6.867,2.345,0.031,0.252,0.183
1711539193.172,8.368,-6.878,2.407,0.015,0.26,0.168
1711539193.278,8.454,-6.835,2.436,0.023,0.237,0.176
1711539193.384,8.349,-6.859,2.23,0.008,0.244,0.183
1711539193.489,8.342,-6.876,2.395,0.023,0.275,0.168
1711539193.595,8.399,-6.862,2.371,0.015,0.237,0.153
1711539193.701,8.474,-6.912,2.208,0.031,0.221,0.16
1711539193.807,8.354,-6.914,2.306,0.023,0.275,0.183
1711539193.912,8.335,-6.888,2.302,0.015,0.282,0.183
1711539194.018,8.387,-6.766,2.572,0.031,0.252,0.191
1711539194.124,8.33,-6.847,2.376,0.023,0.115,0.16
1711539194.229,8.323,-6.792,2.436,0.0,0.267,0.206
1711539194.335,8.395,-6.881,2.239,0.031,0.397,0.183
1711539194.44,8.282,-6.888,2.436,0.038,0.267,0.16
1711539194.545,8.368,-6.855,2.311,0.015,0.221,0.176
1711539194.651,8.433,-6.852,2.287,0.023,0.221,0.16
1711539194.756,8.378,-6.847,2.33,1.947,0.252,0.168
1711539194.861,8.363,-6.768,2.381,0.031,0.237,0.198
1711539194.967,8.378,-6.886,2.352,0.008,0.206,0.183
1711539195.073,8.397,-6.756,2.292,0.015,0.206,0.176
1711539195.179,8.363,-6.898,2.385,0.023,0.244,0.176
1711539195.285,8.395,-6.845,2.326,0.0,0.214,0.176
1711539195.39,8.368,-6.874,2.309,0.031,0.252,0.16
1711539195.496,8.306,-6.845,2.366,0.023,0.275,0.16
1711539195.602,8.368,-6.749,2.35,0.023,0.275,0.183
1711539195.708,8.397,-6.833,2.426,0.008,0.229,0.183
1711539195.814,8.39,-6.881,2.27,0.023,0.237,0.168
1711539195.919,8.347,-6.883,2.338,0.0,0.206,0.168
1711539196.025,8.337,-6.893,2.388,0.008,0.237,0.168
1711539196.131,8.438,-6.833,2.338,0.023,0.237,0.153
1711539196.237,8.327,-6.867,2.321,0.046,0.229,0.183
1711539196.342,8.438,-6.855,2.335,0.023,0.214,0.191
1711539196.448,8.289,-6.833,2.342,0.023,0.214,0.168
1711539196.554,8.349,-6.756,2.364,0.023,0.221,0.183
1711539196.66,8.371,-6.895,2.409,0.023,0.191,0.168
1711539196.765,8.416,-6.886,2.323,0.008,0.214,0.183
1711539196.871,8.323,-6.886,2.345,0.023,0.229,0.168
1711539196.977,8.323,-6.943,2.33,0.031,0.198,0.191
1711539197.084,8.363,-6.845,2.27,0.0,0.206,0.168
1711539197.189,8.371,-6.907,2.345,0.008,0.229,0.191
1711539197.295,8.359,-6.862,2.359,0.023,0.267,0.176
1711539197.401,8.392,-6.855,2.299,0.031,0.237,0.176
1711539197.506,8.38,-6.922,2.366,0.008,0.221,0.176
1711539197.612,8.383,-6.802,2.328,0.008,0.252,0.176
1711539197.718,8.435,-6.895,2.163,0.038,0.26,0.176
1711539197.824,8.383,-6.898,2.369,0.023,0.237,0.183
1711539197.93,8.38,-6.905,2.338,0.031,0.252,0.183
1711539198.036,8.399,-6.902,2.4,0.008,0.206,0.16
1711539198.142,8.299,-7.041,2.338,0.015,0.244,0.16
1711539198.248,8.39,-6.89,2.445,0.038,0.244,0.183
1711539198.354,8.418,-6.867,2.323,0.031,0.267,0.183
1711539198.459,8.385,-6.809,2.294,0.015,0.229,0.176
1711539198.565,8.363,-6.905,2.268,0.008,0.221,0.183
1711539198.671,8.294,-6.859,2.163,0.023,0.229,0.168
1711539198.777,8.371,-6.96,2.184,0.023,0.214,0.191
1711539198.882,8.323,-6.826,2.189,0.0,0.26,0.145
1711539198.988,8.378,-6.864,2.28,0.008,0.252,0.168
1711539199.094,8.399,-6.847,2.357,0.031,0.244,0.16
1711539199.2,8.311,-6.89,2.304,0.023,0.252,0.191
1711539199.305,8.327,-6.771,2.328,0.008,0.229,0.176
1711539199.411,8.375,-6.859,2.187,0.015,0.252,0.176
1711539199.517,8.342,-6.922,2.34,-0.008,0.244,0.198
1711539199.623,8.356,-6.876,2.244,0.0,0.275,0.16
1711539199.728,8.39,-6.9,2.407,0.008,0.237,0.168
1711539199.834,8.378,-6.752,2.424,0.008,0.229,0.183
1711539199.94,8.409,-6.886,2.431,0.023,0.229,0.176
1711539200.046,8.392,-6.931,2.563,0.008,0.237,0.183
1711539200.152,8.375,-6.919,2.333,-0.008,0.229,0.16
1711539200.257,8.347,-6.823,2.352,0.031,0.267,0.145
1711539200.363,8.387,-6.859,2.373,0.023,0.229,0.191
1711539200.468,8.43,-6.874,2.321,0.008,0.252,0.16
1711539200.574,8.366,-6.809,2.39,0.0,0.244,0.16
1711539200.68,8.344,-6.804,2.371,0.0,0.198,0.176
1711539200.786,8.363,-6.874,2.385,0.023,0.244,0.16
1711539200.891,8.366,-6.893,2.187,0.015,0.237,0.176
1711539200.997,8.39,-6.876,2.294,-0.008,0.29,0.168
1711539201.103,8.363,-6.859,2.383,1.947,0.267,0.176
1711539201.209,8.327,-6.917,2.361,0.053,0.229,0.176
1711539201.314,8.363,-6.883,2.35,0.031,0.221,0.183
1711539201.42,8.375,-6.864,2.335,0.008,0.252,0.16
1711539201.526,8.347,-6.941,2.34,0.023,0.229,0.168
1711539201.632,8.387,-6.867,2.328,0.031,0.237,0.198
1711539201.738,8.337,-6.874,2.316,0.0,0.191,0.176
1711539201.843,8.38,-6.869,2.407,0.031,0.206,0.191
1711539201.949,8.371,-6.883,2.302,0.023,0.229,0.191
1711539202.055,8.368,-6.907,2.292,0.008,0.252,0.16
1711539202.161,8.385,-6.864,2.393,0.023,0.252,0.176
1711539202.267,8.428,-6.871,2.333,0.038,0.267,0.183
1711539202.373,8.395,-6.9,2.359,0.038,0.229,0.183
1711539202.479,8.32,-6.924,2.359,0.008,0.244,0.176
1711539202.584,8.327,-6.828,2.333,0.038,0.275,0.168
1711539202.69,8.301,-6.852,2.34,0.015,0.237,0.168
1711539202.796,8.287,-6.967,2.235,0.0,0.252,0.198
1711539202.902,8.375,-6.878,2.338,0.023,0.206,0.191
1711539203.007,8.356,-6.9,2.371,0.008,0.214,0.153
1711539203.113,8.356,-6.946,2.373,0.031,0.237,0.153
1711539203.219,8.385,-6.859,2.436,0.031,0.244,0.168
1711539203.324,8.418,-6.912,2.294,0.015,0.237,0.168
1711539203.43,8.38,-6.857,2.304,0.031,0.267,0.153
1711539203.536,8.38,-6.881,2.376,0.008,0.229,0.176
1711539203.641,8.342,-6.826,2.34,0.023,0.26,0.16
1711539203.746,8.404,-6.831,2.287,0.023,0.282,0.168
1711539203.852,8.349,-6.926,2.419,0.015,0.229,0.183
1711539203.957,8.383,-6.857,2.421,0.038,0.252,0.176
1711539204.063,8.409,-7.013,2.39,0.023,0.275,0.183
1711539204.168,8.426,-6.929,2.567,0.008,0.229,0.16
1711539204.274,8.359,-6.855,2.345,0.031,0.191,0.168
1711539204.38,8.325,-6.883,2.318,-1.954,0.221,0.183
1711539204.485,8.483,-6.888,2.227,1.947,0.351,0.16
1711539204.591,8.38,-6.867,2.522,0.053,0.252,0.176
1711539204.697,8.277,-6.773,2.359,0.023,0.229,0.191
1711539204.803,8.555,-6.84,2.388,0.015,0.221,0.176
1711539204.908,8.332,-6.883,2.189,0.008,0.244,0.183
1711539205.014,8.378,-6.871,2.393,0.023,0.237,0.176
1711539205.12,8.38,-6.831,2.328,0.023,0.237,0.176
1711539205.226,8.404,-6.898,2.361,0.038,0.252,0.183
1711539205.332,8.39,-6.914,2.424,0.0,0.176,0.16
1711539205.437,8.407,-6.893,2.335,0.015,0.107,0.183
1711539205.543,8.311,-7.037,2.024,0.008,0.176,0.16
1711539205.649,8.373,-7.017,2.251,0.031,0.275,0.168
1711539205.755,8.44,-6.826,2.412,0.0,0.237,0.176
1711539205.86,8.361,-6.902,2.443,0.031,0.252,0.183
1711539205.966,8.344,-6.85,2.34,0.023,0.221,0.183
1711539206.072,8.378,-6.9,2.453,0.008,0.214,0.168
1711539206.177,8.392,-6.857,2.335,0.023,0.244,0.168
1711539206.283,8.347,-6.919,2.316,0.008,0.221,0.183
1711539206.389,8.574,-6.802,2.33,0.038,0.237,0.168
1711539206.495,8.337,-6.871,2.297,0.023,0.237,0.191
1711539206.601,8.407,-6.843,2.33,0.015,0.252,0.168
1711539206.707,8.414,-6.845,2.381,0.015,0.252,0.16
1711539206.812,8.344,-6.907,2.359,0.015,0.252,0.183
1711539206.918,8.344,-6.943,2.359,0.031,0.229,0.16
1711539207.024,8.32,-6.893,2.395,0.008,0.244,0.176
1711539207.129,8.373,-6.821,2.395,0.015,0.221,0.198
1711539207.235,8.318,-6.831,2.381,0.008,0.214,0.198
1711539207.341,8.351,-6.862,2.227,0.008,0.237,0.176
1711539207.447,8.402,-7.032,2.333,0.023,0.267,0.176
1711539207.552,8.375,-6.847,2.359,0.031,0.13,0.168
1711539207.658,8.375,-6.862,1.916,0.015,0.107,0.122
1711539207.765,8.454,-6.867,2.393,0.046,0.412,0.206
1711539207.871,8.33,-6.914,2.414,0.046,0.397,0.191
1711539207.977,8.387,-6.874,2.661,0.038,0.282,0.176
1711539208.082,8.294,-6.878,2.366,0.0,0.145,0.191
1711539208.188,8.404,-7.015,2.539,0.015,0.374,0.153
1711539208.294,8.351,-6.934,2.759,0.031,-1.931,0.191
1711539208.399,8.347,-6.776,2.239,0.015,0.176,0.183
1711539208.505,8.577,-7.01,2.318,0.008,0.153,0.153
1711539208.611,8.378,-6.893,2.908,0.076,0.336,0.168
1711539208.716,8.313,-6.929,2.939,0.015,0.237,0.168
1711539208.822,8.141,-6.948,3.358,0.031,-0.359,0.206
1711539208.928,8.531,-6.881,1.897,0.015,0.473,0.176
1711539209.034,8.361,-6.991,2.702,0.023,0.29,0.145
1711539209.139,8.383,-6.874,2.357,0.023,0.122,0.176
1711539209.245,8.248,-7.001,2.338,0.015,0.534,0.198
1711539209.35,8.184,-6.828,2.474,0.008,-1.939,0.191
1711539209.456,8.428,-6.881,1.708,0.0,0.504,0.168
1711539209.561,8.292,-6.759,2.623,0.031,0.298,0.16
1711539209.666,8.133,-6.776,2.419,0.023,0.13,0.183
1711539209.772,8.366,-6.907,2.29,0.023,0.237,0.176
1711539209.877,8.418,-6.845,2.376,0.015,0.26,0.183
1711539209.983,8.363,-6.862,2.369,0.015,0.206,0.191
1711539210.088,8.368,-6.811,2.323,0.038,0.229,0.191
1711539210.194,8.392,-6.831,2.338,0.046,0.206,0.183
1711539210.3,8.165,-6.802,2.05,0.031,0.122,0.198
1711539210.405,8.39,-6.821,2.306,0.023,0.298,0.191
1711539210.51,8.337,-6.893,2.417,0.008,0.221,0.16
1711539210.616,8.418,-6.852,2.383,0.031,0.221,0.168
1711539210.721,8.507,-6.795,1.894,0.008,0.26,0.16
1711539210.826,8.337,-6.902,2.167,0.038,0.313,0.153
1711539210.932,8.347,-6.917,2.409,0.038,0.183,0.153
1711539211.037,8.409,-6.792,2.412,0.023,0.26,0.168
1711539211.143,8.402,-6.895,2.297,0.015,0.237,0.183
1711539211.249,8.373,-6.826,2.316,0.015,0.229,0.176
1711539211.355,8.414,-6.874,2.366,0.031,0.26,0.153
1711539211.46,8.361,-6.835,2.371,0.031,0.244,0.145
1711539211.566,8.26,-6.835,2.5,0.008,0.244,0.206
1711539211.672,8.373,-6.859,2.069,0.046,0.305,0.183
1711539211.777,8.658,-6.605,2.553,0.038,0.405,0.145
1711539211.883,8.368,-6.759,1.154,-1.939,0.015,0.16
1711539211.989,8.385,-6.823,2.347,0.008,0.16,0.183
1711539212.095,8.387,-6.859,2.469,0.023,0.221,0.176
1711539212.2,8.378,-6.89,1.878,0.023,0.466,0.206
1711539212.306,8.373,-6.795,2.699,0.038,0.191,0.183
1711539212.412,8.275,-6.859,2.033,-1.947,0.145,0.176
1711539212.518,8.397,-6.948,1.665,0.015,0.366,0.153
1711539212.623,8.395,-6.771,2.496,0.031,0.206,0.191
1711539212.729,8.335,-6.852,2.369,0.031,0.267,0.16
1711539212.834,8.387,-6.864,2.409,0.023,0.252,0.168
1711539212.94,8.339,-6.857,2.443,0.015,0.252,0.206
1711539213.046,8.368,-6.914,2.369,-0.015,0.282,0.198
1711539213.152,8.428,-6.833,2.306,0.031,0.275,0.168
1711539213.258,8.375,-6.883,2.512,0.031,0.26,0.183
1711539213.364,8.368,-6.878,2.208,0.0,0.13,0.176
1711539213.469,8.548,-6.845,2.419,0.008,0.229,0.183
1711539213.575,8.39,-6.898,2.462,0.0,0.29,0.183
1711539213.681,8.366,-6.871,2.294,0.015,0.221,0.16
1711539213.786,8.395,-6.835,2.254,0.031,0.412,0.176
1711539213.892,8.718,-6.852,1.962,0.031,0.244,0.168
1711539213.998,8.294,-6.862,2.591,0.0,0.42,0.183
1711539214.104,8.375,-6.838,2.642,0.0,0.26,0.176
1711539214.209,8.39,-6.862,2.273,0.023,0.16,0.16
1711539214.314,8.435,-6.9,2.215,0.031,0.237,0.16
1711539214.42,8.277,-6.991,1.897,0.0,0.198,0.153
1711539214.525,8.409,-6.869,2.227,0.0,0.328,0.168
1711539214.63,8.38,-6.828,2.445,0.008,0.229,0.16
1711539214.736,8.023,-7.231,2.685,0.008,0.954,0.229
1711539214.841,8.296,-6.802,1.945,0.008,0.557,0.176
1711539214.947,8.627,-6.735,1.688,0.038,0.473,0.168
1711539215.052,8.308,-6.799,2.534,0.046,0.328,0.176
1711539215.158,8.375,-7.001,2.199,0.008,0.29,0.176
1711539215.264,8.387,-6.747,2.453,0.031,0.244,0.168
1711539215.37,8.354,-6.869,2.409,0.008,0.191,0.176
1711539215.475,8.375,-6.917,2.299,0.0,0.244,0.191
1711539215.581,8.339,-6.936,2.424,0.015,0.244,0.168
1711539215.687,8.327,-6.89,2.314,0.031,0.229,0.183
1711539215.792,8.316,-6.869,2.34,0.015,0.252,0.183
1711539215.898,8.282,-6.809,2.34,0.015,0.229,0.183
1711539216.004,8.399,-6.924,2.421,0.031,0.229,0.183
1711539216.11,8.387,-6.864,2.297,0.023,0.237,0.183
1711539216.215,8.387,-6.855,2.441,0.015,0.282,0.198
1711539216.321,8.363,-6.773,2.429,0.023,0.29,0.176
1711539216.427,8.421,-6.867,2.335,0.015,0.229,0.153
1711539216.532,8.28,-6.871,2.203,0.023,0.229,0.168
1711539216.638,8.378,-6.89,2.299,0.015,0.298,0.191
1711539216.744,8.366,-7.046,2.256,0.031,0.252,0.198
1711539216.849,8.378,-6.862,2.282,0.031,0.275,0.176
1711539216.955,8.296,-6.888,2.369,0.015,0.191,0.176
1711539217.061,8.323,-6.979,2.024,-1.947,1.939,0.183
1711539217.167,8.33,-6.814,2.16,0.031,0.267,0.168
1711539217.272,8.5,-6.847,2.395,0.015,0.282,0.153
1711539217.378,8.332,-6.814,2.048,0.031,0.115,0.16
1711539217.484,8.395,-6.948,2.409,-0.015,0.42,0.191
1711539217.589,8.356,-6.814,2.462,0.038,0.115,0.191
1711539217.695,8.361,-6.874,2.285,0.008,0.168,0.191
1711539217.801,8.399,-7.037,2.39,0.023,0.26,0.168
1711539217.906,8.411,-6.85,2.34,0.015,0.191,0.183
1711539218.012,8.567,-6.855,1.871,0.008,0.191,0.168
1711539218.118,8.327,-7.032,2.438,0.015,0.29,0.168
1711539218.223,8.28,-6.878,2.426,0.023,0.244,0.168
1711539218.329,8.536,-6.828,2.333,0.008,0.206,0.168
1711539218.435,8.454,-6.749,2.366,0.046,0.214,0.176
1711539218.54,8.363,-6.828,2.414,-0.008,0.206,0.16
1711539218.646,8.337,-6.912,2.254,0.015,0.221,0.198
1711539218.751,8.368,-6.871,2.306,0.031,0.168,0.16
1711539218.858,8.373,-6.871,2.366,0.008,0.237,0.168
1711539218.963,8.354,-6.902,2.364,0.015,0.206,0.176
1711539219.069,8.342,-6.838,2.412,0.008,0.328,0.176
1711539219.175,8.349,-6.857,2.417,0.015,0.244,0.198
1711539219.281,8.371,-6.871,2.364,0.0,0.206,0.168
1711539219.386,8.445,-6.833,2.366,0.015,0.183,0.16
1711539219.492,8.555,-6.867,2.127,0.008,0.42,0.153
1711539219.598,8.354,-6.862,2.388,0.023,0.29,0.198
1711539219.704,8.332,-6.833,2.347,0.023,0.008,0.176
1711539219.81,8.392,-6.871,2.227,0.015,0.313,0.183
1711539219.915,8.414,-6.859,2.378,0.031,0.298,0.168
1711539220.021,8.416,-6.874,2.481,0.008,0.298,0.176
1711539220.127,8.32,-6.869,2.445,0.023,0.237,0.214
1711539220.232,8.325,-6.922,2.292,0.023,0.237,0.198
1711539220.338,8.361,-7.032,2.148,0.031,0.214,0.168
1711539220.443,8.299,-7.032,2.297,0.031,0.26,0.191
1711539220.548,8.349,-6.881,2.373,0.008,0.229,0.206
1711539220.654,8.363,-6.613,2.553,-0.672,0.87,-0.031
1711539220.759,8.299,-7.013,2.407,0.015,0.183,0.176
1711539220.865,8.327,-6.852,2.146,0.015,0.191,0.168
1711539220.971,8.196,-6.878,2.345,0.031,0.214,0.221
1711539221.076,8.318,-6.804,2.323,0.038,0.206,0.176
1711539221.182,8.421,-6.929,2.421,0.023,0.206,0.191
1711539221.288,8.452,-6.776,2.338,0.008,0.275,0.198
1711539221.394,8.756,-6.962,1.253,-1.137,0.214,1.947
1711539221.499,8.325,-6.756,2.472,-0.145,0.229,0.107
1711539221.605,8.189,-7.094,2.421,-0.221,-0.046,0.145
1711539221.711,8.359,-6.943,2.431,0.008,0.13,0.168
1711539221.817,8.423,-6.768,2.28,0.015,0.198,0.176
1711539221.923,8.399,-7.022,2.338,0.015,0.229,0.191
1711539222.029,9.338,-6.883,1.492,-0.023,0.023,0.122
1711539222.134,8.466,-6.847,2.244,0.008,0.244,0.183
1711539222.24,8.399,-6.895,2.306,0.015,0.252,0.168
1711539222.346,8.366,-6.893,2.385,0.023,0.26,0.153
1711539222.452,8.418,-6.807,2.084,0.008,0.496,0.16
1711539222.558,8.294,-6.905,2.393,0.008,0.229,0.153
1711539222.663,8.512,-6.934,2.524,0.015,0.244,0.153
1711539222.769,8.567,-6.917,2.268,0.015,0.267,0.176
1711539222.875,8.39,-6.898,2.381,1.947,0.221,0.191
1711539222.981,8.409,-6.881,2.429,0.023,0.305,0.16
1711539223.087,8.351,-6.859,2.433,0.038,0.214,0.183
1711539223.193,8.304,-6.89,2.366,0.015,0.221,0.16
1711539223.298,8.452,-7.305,2.328,-0.29,0.13,0.099
1711539223.404,8.359,-6.874,2.383,0.038,0.16,0.168
1711539223.51,8.371,-6.867,2.395,0.015,0.206,0.153
1711539223.616,8.294,-6.783,2.33,-0.168,0.221,0.107
1711539223.722,8.33,-6.756,2.469,-0.084,0.229,0.137
1711539223.827,8.371,-6.905,2.388,0.046,0.206,0.168
1711539223.933,8.414,-6.864,2.385,0.015,0.229,0.168
1711539224.039,8.301,-6.847,2.328,-0.015,0.267,0.145
1711539224.145,8.548,-6.917,2.326,0.0,0.229,0.168
1711539224.25,8.407,-6.905,2.311,0.046,0.237,0.176
1711539224.355,8.344,-6.78,2.194,0.023,0.244,0.176
1711539224.461,8.392,-6.938,2.39,0.008,0.237,0.176
1711539224.566,8.399,-6.814,2.347,0.008,0.267,0.16
1711539224.671,8.354,-6.867,2.309,0.015,0.267,0.16
1711539224.777,8.414,-6.895,2.352,0.031,0.244,0.16
1711539224.882,8.363,-6.902,2.323,0.031,0.229,0.176
1711539224.988,8.426,-6.845,2.316,0.038,0.229,0.176
1711539225.094,8.402,-6.878,2.278,0.015,0.214,0.183
1711539225.2,8.378,-6.893,2.345,0.008,0.237,0.206
1711539225.306,8.32,-6.847,2.57,0.031,0.221,0.176
1711539225.411,8.342,-6.898,2.407,0.038,0.252,0.183
1711539225.517,8.615,-7.022,1.799,0.023,0.954,0.176
1711539225.623,8.426,-7.017,2.481,0.008,0.282,0.176
1711539225.728,8.526,-6.79,2.244,0.015,0.359,0.198
1711539225.834,8.385,-6.862,2.383,0.023,0.252,0.153
1711539225.94,8.371,-6.838,2.383,0.023,0.237,0.183
1711539226.046,8.359,-6.888,2.385,0.023,0.221,0.183
1711539226.151,8.359,-6.895,2.373,0.0,0.214,0.168
1711539226.257,8.366,-7.046,2.345,0.008,0.252,0.153
1711539226.363,8.39,-6.943,2.323,0.0,0.237,0.153
1711539226.469,8.366,-6.907,2.338,0.023,0.206,0.168
1711539226.574,8.313,-6.878,2.57,0.023,0.214,0.191
1711539226.68,8.368,-6.929,2.385,0.031,0.198,0.176
1711539226.786,8.28,-6.85,2.354,0.023,0.252,0.168
1711539226.892,8.371,-6.859,2.354,0.0,0.237,0.176
1711539226.998,8.375,-6.912,2.318,0.031,0.221,0.168
1711539227.103,8.344,-6.838,2.287,0.038,0.221,0.198
1711539227.209,8.349,-6.852,2.34,0.038,0.229,0.183
1711539227.315,8.397,-6.869,2.369,0.015,0.221,0.191
1711539227.421,8.327,-6.991,2.309,0.031,0.237,0.16
1711539227.527,8.385,-6.948,2.383,0.0,0.221,0.168
1711539227.632,8.359,-6.898,2.373,0.031,0.198,0.191
1711539227.738,8.366,-6.768,2.34,0.015,0.229,0.16
1711539227.844,8.284,-6.878,2.445,0.038,0.191,0.16
1711539227.95,8.344,-7.008,2.311,0.023,0.214,0.183
1711539228.055,8.392,-6.864,2.385,0.015,0.252,0.168
1711539228.161,8.351,-6.835,2.335,0.015,0.198,0.176
1711539228.267,8.344,-6.888,2.357,0.031,0.221,0.191
1711539228.373,8.402,-6.833,2.33,0.031,0.229,0.168
1711539228.479,8.383,-6.878,2.335,0.023,0.244,0.191
1711539228.584,8.335,-6.888,2.326,0.008,0.229,0.168
1711539228.69,8.418,-6.946,2.395,0.038,0.237,0.191
1711539228.796,8.349,-6.855,2.318,0.031,0.229,0.183
1711539228.902,8.387,-6.847,2.326,0.008,0.214,0.176
1711539229.007,8.318,-6.852,2.388,0.031,0.244,0.176
1711539229.113,8.327,-6.835,2.328,0.015,0.221,0.191
1711539229.219,8.217,-6.828,2.46,0.023,0.023,0.16
1711539229.324,8.505,-6.749,2.062,0.015,0.252,0.168
1711539229.429,8.404,-6.869,2.28,-0.008,0.313,0.176
1711539229.535,8.397,-6.821,2.273,0.038,0.389,0.168
1711539229.64,8.347,-6.871,2.304,0.0,0.244,0.176
1711539229.745,8.385,-6.864,2.318,0.008,0.26,0.183
1711539229.851,8.304,-6.934,2.333,0.023,0.229,0.168
1711539229.957,8.385,-6.867,2.453,0.023,0.237,0.168
1711539230.063,8.32,-6.859,2.388,0.031,0.191,0.176
1711539230.168,8.407,-6.852,2.395,0.031,0.244,0.183
1711539230.274,8.287,-6.776,2.306,0.015,0.244,0.183
1711539230.38,8.402,-6.871,2.354,1.947,0.252,0.168
1711539230.486,8.337,-6.907,2.424,-0.015,0.206,0.168
1711539230.591,8.299,-6.898,2.373,0.015,0.221,0.168
1711539230.697,8.385,-6.993,2.366,0.008,0.176,0.145
1711539230.803,8.289,-6.833,2.29,0.008,0.229,0.183
1711539230.909,8.359,-6.852,2.407,0.038,0.176,0.176
1711539231.014,8.692,-6.965,2.838,0.015,0.153,0.153
1711539231.12,8.512,-6.852,2.244,0.0,0.214,0.183
1711539231.226,8.385,-6.953,2.364,0.015,0.275,0.198
1711539231.332,8.438,-6.785,2.314,0.023,0.237,0.191
1711539231.437,8.385,-6.924,2.443,0.008,0.26,0.176
1711539231.543,8.402,-6.855,2.323,0.008,0.237,0.168
1711539231.649,8.335,-6.869,2.443,0.015,0.252,0.183
1711539231.755,8.157,-6.878,2.223,-1.954,0.16,0.168
1711539231.86,8.383,-6.9,2.342,0.023,0.206,0.145
1711539231.966,8.38,-6.874,2.34,-1.954,0.267,0.176
1711539232.072,8.414,-6.867,2.314,0.023,0.267,0.168
1711539232.178,8.407,-6.917,2.338,0.023,0.206,0.168
1711539232.284,8.433,-6.895,2.45,0.008,0.244,0.16
1711539232.389,8.368,-6.9,2.306,0.015,0.221,0.168
1711539232.495,8.347,-6.811,2.376,0.015,0.237,0.168
1711539232.6,8.414,-6.85,2.203,0.023,0.252,0.183
1711539232.706,8.356,-6.948,2.419,0.008,0.221,0.183
1711539232.811,8.371,-6.931,2.453,0.038,0.252,0.191
1711539232.916,8.395,-6.785,2.395,0.023,0.244,0.183
1711539233.022,8.414,-6.857,2.316,0.023,0.237,0.176
1711539233.127,8.368,-6.862,2.359,0.046,0.221,0.168
1711539233.233,8.387,-7.025,2.33,0.023,0.221,0.183
1711539233.338,8.414,-6.924,2.4,0.031,0.237,0.176
1711539233.444,8.407,-6.852,2.347,0.031,0.221,0.183
1711539233.55,8.342,-6.766,3.224,0.0,0.458,0.183
1711539233.656,8.409,-6.862,2.175,0.008,0.084,0.176
1711539233.761,8.342,-6.958,2.299,0.023,0.191,0.183
1711539233.867,8.392,-6.917,2.259,0.015,0.26,0.176
1711539233.973,8.383,-6.859,2.273,0.046,0.229,0.198
1711539234.081,8.371,-7.032,2.441,0.015,0.229,0.198
1711539234.187,8.378,-6.905,2.393,0.0,0.244,0.183
1711539234.292,8.375,-6.905,2.261,0.015,0.229,0.153
1711539234.397,8.356,-6.874,2.373,0.031,0.206,0.137
1711539234.503,8.337,-6.867,2.397,0.023,0.198,0.176
1711539234.608,8.354,-6.855,2.333,0.015,0.229,0.176
1711539234.713,8.296,-6.855,2.191,0.038,0.252,0.16
1711539234.819,8.438,-6.852,2.527,0.015,0.244,0.168
1711539234.925,8.373,-6.946,2.484,0.023,0.153,0.176
1711539235.03,8.435,-6.843,2.323,0.015,0.237,0.16
1711539235.136,8.45,-6.859,2.256,0.038,0.252,0.198
1711539235.242,9.178,-6.996,2.522,0.046,0.115,0.13
1711539235.347,8.548,-6.924,2.342,0.008,0.374,0.16
1711539235.453,8.375,-6.96,2.304,0.038,0.198,0.176
1711539235.558,8.397,-6.831,2.314,0.015,0.198,0.16
1711539235.664,8.351,-6.871,2.27,0.031,0.244,0.16
1711539235.769,8.335,-6.931,2.409,0.023,0.252,0.191
1711539235.875,8.392,-6.89,2.153,0.008,0.244,0.16
1711539235.98,8.347,-7.017,2.395,0.008,0.214,0.16
1711539236.086,8.383,-6.764,2.261,0.015,0.244,0.183
1711539236.192,8.378,-6.924,2.268,0.031,0.275,0.168
1711539236.298,8.32,-6.883,2.254,0.031,0.374,0.183
1711539236.404,8.44,-6.828,2.311,0.031,0.313,0.153
1711539236.51,8.366,-6.9,2.39,0.038,0.313,0.191
1711539236.615,8.371,-6.893,2.555,0.015,0.092,0.183
1711539236.721,8.301,-6.874,2.239,0.046,0.206,0.168
1711539236.826,8.299,-6.886,2.436,0.023,0.282,0.176
1711539236.932,8.395,-6.886,2.352,0.038,0.26,0.168
1711539237.037,8.457,-6.864,2.215,0.023,0.252,0.183
1711539237.142,8.428,-6.855,2.381,0.031,0.298,0.191
1711539237.248,8.442,-6.912,2.455,0.031,0.221,0.168
1711539237.353,8.414,-6.876,2.306,0.008,0.214,0.168
1711539237.459,8.323,-6.912,2.314,0.008,0.198,0.16
1711539237.565,8.258,-6.778,2.575,0.031,0.305,0.214
1711539237.671,8.356,-6.795,2.464,0.0,0.16,0.16
1711539237.777,8.342,-6.91,2.314,0.031,0.252,0.176
1711539237.882,8.428,-6.828,2.402,0.031,0.16,0.16
1711539237.988,8.39,-6.867,2.177,0.008,0.313,0.153
1711539238.094,8.234,-6.871,2.469,0.031,0.321,0.168
1711539238.2,8.771,-6.768,2.237,0.015,0.458,0.153
1711539238.305,8.335,-6.905,2.146,0.038,0.244,0.176
1711539238.411,8.383,-6.874,2.35,0.008,0.267,0.176
1711539238.517,9.084,-6.586,4.766,9.618,0.26,3.122
1711539238.622,8.332,-7.029,0.872,-0.275,1.122,0.13
1711539238.728,8.356,-6.967,1.571,0.0,0.511,0.344
1711539238.834,8.428,-6.867,2.16,0.924,-1.031,0.519
1711539238.94,9.496,-6.368,4.184,-0.779,-1.16,-0.374
1711539239.046,9.436,-6.265,2.285,0.214,-0.634,0.115
1711539239.151,9.954,-9.944,1.595,-2.275,0.809,-0.389
1711539239.257,8.531,-7.841,2.991,-1.366,-1.901,-0.382
1711539239.362,8.265,-6.946,2.218,-0.115,0.046,0.145
1711539239.467,9.123,-6.162,2.946,-3.122,0.878,-0.969
1711539239.573,8.248,-6.656,3.59,-0.557,-0.061,-0.046
1711539239.678,8.84,-7.465,1.595,-0.725,0.603,0.038
1711539239.784,8.272,-6.926,2.752,1.87,0.099,0.122
1711539239.889,8.39,-6.826,2.268,0.412,1.924,0.412
1711539239.995,8.967,-7.171,2.426,0.328,-3.489,2.992
1711539240.101,6.79,-6.462,1.849,-0.298,-4.435,-1.351
1711539240.207,6.795,-8.862,1.356,0.802,-3.435,1.885
1711539240.313,9.197,-5.923,4.445,0.084,1.534,0.229
1711539240.419,7.128,-7.693,-0.319,0.092,-1.679,1.641
1711539240.524,9.257,-7.537,-1.437,0.053,7.405,1.115
1711539240.63,8.795,-6.596,2.991,-0.573,-2.725,1.122
1711539240.736,9.276,-6.493,2.009,-0.046,3.153,0.115
1711539240.841,8.768,-8.098,1.221,-0.687,3.0,-0.611
1711539240.947,8.517,-6.833,3.396,-0.206,2.756,-0.229
1711539241.053,8.167,-6.938,0.563,-0.206,0.954,0.008
1711539241.159,8.129,-6.905,3.042,-0.55,-0.183,0.053
1711539241.264,9.329,-6.522,1.111,0.389,1.038,-0.305
1711539241.37,8.117,-7.022,2.304,0.023,0.977,0.29
1711539241.476,8.84,-6.934,2.759,0.107,0.649,0.031
1711539241.582,8.335,-6.816,2.783,0.046,-0.076,0.206
1711539241.688,8.327,-6.89,2.318,0.038,0.137,0.183
1711539241.793,8.392,-6.893,2.359,0.008,0.221,0.183
1711539241.899,8.342,-6.859,2.438,0.008,0.221,0.168
1711539242.005,8.354,-6.905,2.395,0.015,0.221,0.191
1711539242.111,8.354,-6.852,2.215,0.008,0.275,0.183
1711539242.217,8.409,-6.857,2.426,0.008,0.275,0.183
1711539242.322,8.409,-6.847,2.335,0.031,0.26,0.16
1711539242.428,8.292,-6.807,2.354,0.008,0.252,0.198
1711539242.534,8.368,-6.857,2.39,-1.954,0.267,0.168
1711539242.64,8.294,-6.876,2.388,0.038,0.244,0.168
1711539242.745,8.385,-6.881,2.256,0.023,0.229,0.191
1711539242.851,8.351,-6.922,2.306,0.031,0.229,0.153
1711539242.957,8.354,-6.958,2.338,0.031,0.229,0.176
1711539243.063,8.339,-6.869,2.405,0.023,0.198,0.168
1711539243.168,8.38,-6.876,2.397,0.031,0.214,0.191
1711539243.274,8.373,-6.862,2.342,0.023,0.374,0.176
1711539243.38,8.337,-6.89,2.366,0.023,0.336,0.183
1711539243.486,8.407,-6.864,2.361,0.0,0.305,0.16
1711539243.591,8.395,-6.867,2.299,0.008,0.313,0.183
1711539243.697,8.332,-6.876,2.464,0.015,0.237,0.168
1711539243.803,8.409,-6.84,2.364,0.038,0.214,0.183
1711539243.908,8.306,-6.835,2.326,0.023,0.214,0.176
1711539244.014,8.316,-6.893,2.505,0.023,0.221,0.168
1711539244.119,8.373,-6.871,2.263,0.015,0.26,0.191
1711539244.224,8.395,-6.752,2.443,0.015,0.183,0.183
1711539244.33,8.371,-6.823,2.342,0.038,0.198,0.176
1711539244.435,8.342,-6.905,2.385,0.031,0.26,0.191
1711539244.541,8.356,-6.862,2.163,0.023,0.237,0.168
1711539244.647,8.306,-6.771,2.218,0.015,0.221,0.198
1711539244.752,8.387,-6.902,2.378,0.008,0.252,0.168
1711539244.858,8.368,-7.051,2.323,0.008,0.282,0.183
1711539244.964,8.392,-6.804,2.345,0.046,0.229,0.183
1711539245.07,8.342,-6.871,2.345,0.008,0.221,0.198
1711539245.176,8.375,-6.914,2.306,0.023,0.26,0.176
1711539245.281,8.378,-6.893,2.318,0.015,0.267,0.168
1711539245.387,8.38,-6.814,2.366,0.038,0.244,0.153
1711539245.493,8.342,-6.871,2.316,0.023,0.221,0.168
1711539245.599,8.402,-6.864,2.436,0.023,0.237,0.168
1711539245.704,8.418,-6.919,2.361,0.023,0.275,0.191
1711539245.81,8.363,-6.874,2.311,0.015,0.244,0.176
1711539245.916,8.349,-6.943,2.273,0.031,0.267,0.168
1711539246.022,8.39,-6.917,2.395,0.015,0.214,0.176
1711539246.128,8.414,-6.845,2.342,1.947,0.237,0.153
1711539246.234,8.38,-6.895,2.407,0.015,0.221,0.183
1711539246.339,8.416,-6.886,2.445,0.015,0.221,0.168
1711539246.445,8.38,-6.821,2.22,0.008,0.244,0.153
1711539246.551,8.354,-7.039,2.342,0.015,0.168,0.198
1711539246.656,8.399,-6.874,2.335,0.038,0.252,0.176
1711539246.762,8.337,-6.874,2.345,0.008,0.267,0.206
1711539246.868,8.423,-6.826,2.414,0.023,0.229,0.183
1711539246.973,8.349,-6.859,2.405,0.031,0.214,0.176
1711539247.079,8.368,-7.008,2.388,0.046,0.206,0.191
1711539247.185,8.385,-6.855,2.333,0.015,0.244,0.176
1711539247.291,8.423,-6.835,2.357,0.008,0.252,0.176
1711539247.397,8.416,-6.787,2.378,0.023,0.206,0.176
1711539247.502,8.344,-6.843,2.338,0.023,0.221,0.191
1711539247.608,8.409,-6.843,2.326,0.023,0.206,0.183
1711539247.714,8.347,-6.835,2.369,0.023,0.244,0.153
1711539247.82,8.347,-6.895,2.34,0.031,0.214,0.206
1711539247.925,8.414,-7.029,2.457,0.023,0.16,0.16
1711539248.031,8.268,-6.878,2.048,0.015,0.221,0.176
1711539248.137,8.361,-6.833,2.35,0.023,0.328,0.168
1711539248.243,8.342,-6.833,2.282,0.015,0.382,0.183
1711539248.349,8.356,-6.881,2.249,0.015,0.282,0.168
1711539248.455,8.421,-6.883,2.366,0.0,0.237,0.176
1711539248.56,8.347,-6.876,2.4,0.038,0.244,0.183
1711539248.666,8.378,-6.826,2.266,0.046,0.252,0.183
1711539248.772,8.354,-6.914,2.414,0.0,0.183,0.16
1711539248.878,8.483,-6.84,2.268,-0.008,0.267,0.145
1711539248.983,8.39,-6.905,2.486,0.031,0.275,0.168
1711539249.09,8.339,-6.898,2.345,0.023,0.191,0.176
1711539249.195,8.32,-6.895,2.251,0.015,0.229,0.183
1711539249.302,8.351,-6.905,2.316,0.015,0.244,0.183
1711539249.409,8.407,-6.91,2.508,0.038,0.198,0.183
1711539249.514,8.282,-6.986,2.189,0.0,0.26,0.176
1711539249.62,8.359,-6.867,2.338,0.0,0.237,0.183
1711539249.727,8.39,-6.838,2.227,0.023,0.267,0.198
1711539249.833,8.378,-6.867,2.417,0.023,0.244,0.168
1711539249.939,8.33,-6.888,2.395,-0.023,0.221,0.176
1711539250.046,8.251,-6.893,2.242,0.038,0.214,0.176
1711539250.151,8.351,-6.862,2.376,0.008,0.214,0.183
1711539250.257,8.378,-6.876,2.441,0.023,0.237,0.16
1711539250.363,8.421,-6.864,2.302,0.0,0.229,0.176
1711539250.47,8.339,-6.852,2.424,0.008,0.183,0.176
1711539250.576,8.383,-6.869,2.412,1.947,0.237,0.176
1711539250.683,8.371,-6.843,2.326,0.008,0.244,0.183
1711539250.789,8.349,-6.867,2.443,0.023,0.252,0.168
1711539250.895,8.397,-6.905,2.292,0.015,0.229,0.176
1711539251.002,8.368,-6.821,2.407,0.023,0.237,0.214
1711539251.108,8.399,-6.89,2.292,0.015,0.26,0.168
1711539251.214,8.409,-6.85,2.251,0.008,0.42,0.168
1711539251.32,8.361,-6.852,2.409,0.046,0.313,0.183
1711539251.427,8.371,-6.864,2.17,0.023,0.267,0.183
1711539251.533,8.347,-6.823,2.371,0.015,0.244,0.176
1711539251.639,8.344,-6.881,2.294,0.023,0.252,0.198
1711539251.744,8.311,-6.864,2.393,0.008,0.229,0.183
1711539251.85,8.335,-6.862,2.424,0.015,0.267,0.176
1711539251.956,8.361,-6.871,2.311,0.008,0.26,0.191
1711539252.061,8.371,-6.855,2.711,0.031,0.198,0.191
1711539252.167,8.478,-6.993,2.476,0.031,0.229,0.183
1711539252.272,8.416,-6.752,2.558,0.038,0.244,0.183
1711539252.378,8.304,-6.847,2.227,0.038,0.29,0.176
1711539252.484,8.378,-6.833,2.388,0.046,0.237,0.183
1711539252.589,8.38,-6.816,2.292,0.008,0.214,0.168
1711539252.695,8.313,-7.044,2.333,0.015,0.191,0.176
1711539252.801,8.368,-6.869,2.383,0.023,0.221,0.168
1711539252.906,8.327,-6.905,2.314,0.038,0.237,0.191
1711539253.012,8.375,-6.852,2.311,0.0,0.26,0.176
1711539253.117,8.395,-6.867,2.35,0.015,0.252,0.16
1711539253.223,8.316,-6.869,2.366,0.031,0.229,0.16
1711539253.329,8.371,-6.867,2.361,0.008,0.244,0.176
1711539253.435,8.541,-6.84,2.328,0.008,0.252,0.176
1711539253.541,8.421,-6.859,2.424,0.015,0.237,0.16
1711539253.647,8.373,-6.847,2.352,0.046,0.244,0.176
1711539253.752,8.383,-7.039,2.443,0.023,0.221,0.153
1711539253.858,8.395,-6.878,2.395,0.023,0.237,0.145
1711539253.964,8.407,-6.855,2.436,0.038,0.237,0.176
1711539254.07,8.318,-6.85,2.405,0.0,0.229,0.183
1711539254.176,8.342,-6.876,2.323,0.038,0.282,0.153
1711539254.281,8.536,-6.981,2.292,0.023,0.26,0.198
1711539254.387,8.332,-6.831,2.443,0.038,0.252,0.183
1711539254.492,8.414,-6.807,2.328,0.008,0.237,0.16
1711539254.598,8.414,-6.871,2.421,0.015,0.229,0.183
1711539254.703,8.371,-6.9,2.424,0.031,0.26,0.168
1711539254.809,8.392,-6.878,2.366,0.015,0.244,0.176
1711539254.914,8.402,-6.85,2.16,1.947,0.237,0.168
1711539255.02,8.371,-6.929,2.352,0.061,0.267,0.183
1711539255.126,8.399,-6.867,2.261,0.008,0.221,0.16
1711539255.232,8.366,-6.857,2.393,0.008,0.252,0.198
1711539255.338,8.385,-6.752,2.189,0.023,0.229,0.176
1711539255.444,8.423,-6.814,2.306,0.038,0.206,0.168
1711539255.549,8.426,-6.821,2.321,0.023,0.229,0.168
1711539255.655,8.332,-6.898,2.342,0.008,0.229,0.191
1711539255.761,8.363,-7.005,2.232,0.015,0.252,0.183
1711539255.867,8.378,-6.826,2.282,0.031,0.26,0.16
1711539255.973,8.397,-6.84,2.302,0.008,0.244,0.16
1711539256.078,8.371,-6.852,2.275,0.038,0.229,0.176
1711539256.184,8.38,-6.871,2.316,0.008,0.252,0.168
1711539256.29,8.318,-6.871,2.297,0.031,0.244,0.183
1711539256.396,8.418,-6.833,2.309,0.008,0.244,0.168
1711539256.502,8.39,-6.874,2.318,0.015,0.237,0.206
1711539256.607,8.344,-6.929,2.369,0.015,0.252,0.176
1711539256.713,8.438,-6.922,2.378,0.023,0.229,0.16
1711539256.819,8.423,-6.85,2.213,0.015,0.237,0.191
1711539256.925,8.349,-6.902,2.385,0.023,0.244,0.176
1711539257.031,8.366,-6.852,2.373,0.023,0.229,0.145
1711539257.137,8.55,-6.835,2.364,1.947,0.214,0.168
1711539257.242,8.541,-6.886,2.278,0.031,0.214,0.183
1711539257.348,8.356,-6.857,2.302,0.038,0.221,0.176
1711539257.454,8.316,-6.898,2.165,0.0,0.214,0.168
1711539257.56,8.361,-6.943,2.359,0.023,0.237,0.183
1711539257.665,8.351,-6.878,2.29,0.031,0.229,0.16
1711539257.771,8.371,-6.828,2.311,0.046,0.237,0.176
1711539257.877,8.323,-6.881,2.395,0.031,0.229,0.183
1711539257.983,8.421,-6.833,2.46,0.031,0.191,0.168
1711539258.089,8.385,-6.883,2.373,0.015,0.198,0.176
1711539258.195,8.39,-6.807,2.376,0.0,0.237,0.16
1711539258.3,8.418,-6.826,2.376,0.046,0.252,0.16
1711539258.406,8.349,-6.855,2.441,0.023,0.252,0.168
1711539258.512,8.354,-6.888,2.395,0.038,0.229,0.16
1711539258.618,8.347,-6.859,2.39,0.008,0.221,0.183
1711539258.724,8.344,-6.828,2.165,0.038,0.214,0.176
1711539258.83,8.404,-6.749,2.373,0.0,0.229,0.198
1711539258.936,8.38,-6.9,2.33,0.015,0.229,0.176
1711539259.041,8.356,-6.797,2.268,-1.947,0.206,0.183
1711539259.147,8.335,-6.893,2.263,0.015,0.237,0.168
1711539259.253,8.392,-6.883,2.431,0.038,0.221,0.183
1711539259.359,8.371,-7.037,2.388,0.038,0.275,0.191
1711539259.465,8.383,-6.857,2.388,0.031,0.244,0.16
1711539259.571,8.342,-6.857,2.309,0.008,0.237,0.198
1711539259.677,8.332,-6.826,2.299,0.0,0.26,0.168
1711539259.782,8.402,-6.843,2.359,0.023,0.237,0.168
1711539259.888,8.38,-6.823,2.309,0.031,0.214,0.16
1711539259.994,8.395,-6.907,2.306,-0.023,0.252,0.191
1711539260.099,8.344,-6.857,2.268,0.0,0.267,0.183
1711539260.204,8.399,-6.84,2.326,0.038,0.221,0.176
1711539260.31,8.316,-6.895,2.371,0.038,0.214,0.176
1711539260.416,8.356,-6.914,2.306,0.031,0.244,0.168
1711539260.522,8.323,-6.749,2.381,0.023,0.229,0.16
1711539260.629,8.339,-6.874,2.409,0.031,0.26,0.183
1711539260.735,8.407,-6.838,2.345,1.947,0.252,0.168
1711539260.841,8.289,-6.85,2.393,0.015,0.237,0.191
1711539260.947,8.323,-6.833,2.397,0.0,0.206,0.168
1711539261.053,8.325,-6.89,2.156,0.008,0.237,0.176
1711539261.159,8.426,-6.838,2.227,0.038,0.244,0.168
1711539261.265,8.344,-6.855,2.304,0.031,0.214,0.168
1711539261.371,8.342,-6.847,2.4,0.015,0.237,0.153
1711539261.477,8.385,-6.9,2.393,0.023,0.221,0.191
1711539261.583,8.375,-6.845,2.321,0.015,0.244,0.176
1711539261.69,8.397,-6.852,2.338,0.0,0.229,0.183
1711539261.795,8.28,-6.859,2.407,0.008,0.26,0.183
1711539261.902,8.344,-6.79,2.512,0.015,0.267,0.145
1711539262.008,8.402,-6.905,2.393,0.015,0.275,0.176
1711539262.114,8.392,-6.852,2.297,0.023,0.244,0.168
1711539262.22,8.397,-6.881,2.412,1.947,0.336,0.168
1711539262.326,8.423,-6.938,2.208,0.0,0.26,0.183
1711539262.431,8.33,-6.869,2.163,0.038,0.282,0.191
1711539262.538,8.375,-6.874,2.218,-1.954,0.221,0.183
1711539262.644,8.363,-6.893,2.275,0.015,0.275,0.191
1711539262.75,8.28,-6.871,2.366,0.038,0.229,0.191
1711539262.856,8.383,-6.881,2.266,0.031,0.214,0.153
1711539262.961,8.438,-6.85,2.405,0.031,0.084,0.168
1711539263.067,8.349,-6.847,2.302,0.023,0.244,0.16
1711539263.173,8.301,-6.783,2.309,0.053,0.29,0.176
1711539263.279,8.347,-6.787,2.223,1.924,0.13,0.214
1711539263.385,8.423,-6.9,2.843,0.046,0.603,0.191
1711539263.491,8.639,-7.034,2.51,-1.947,0.382,0.191
1711539263.597,8.404,-6.862,2.965,0.351,0.382,0.252
1711539263.703,8.775,-6.95,2.074,0.679,0.29,0.397
1711539263.809,11.403,-8.862,4.56,1.061,-0.229,-0.176
1711539263.915,8.428,-6.498,2.845,0.443,0.214,0.313
1711539264.021,9.08,-5.506,3.281,-0.084,0.061,0.237
1711539264.127,8.478,-7.195,1.358,-0.168,1.809,0.153
1711539264.232,8.069,-6.165,2.048,-1.748,0.206,-0.282
1711539264.338,8.122,-6.869,1.763,-1.718,0.397,-0.397
1711539264.444,8.311,-6.658,2.613,-0.679,0.863,-0.779
1711539264.55,7.686,-6.967,2.179,0.023,-0.595,0.817
1711539264.656,8.076,-6.986,2.831,-2.733,0.275,-0.527
1711539264.762,8.296,-7.108,1.729,-1.45,1.206,-0.168
1711539264.868,8.483,-7.152,0.108,-2.237,2.634,-0.58
1711539264.974,8.521,-7.767,2.606,0.168,-0.13,-0.374
1711539265.08,8.569,-7.341,0.398,-0.817,1.26,-0.145
1711539265.186,6.091,-8.138,0.462,-1.908,-2.504,-3.779
1711539265.292,9.238,-9.25,0.067,0.137,-20.534,3.611
1711539265.397,7.803,-6.634,-1.43,-0.908,-2.275,0.412
1711539265.503,8.1,-7.362,-1.827,0.145,-9.321,1.092
1711539265.609,8.871,-7.013,-1.42,1.924,-12.863,4.985
1711539265.715,8.363,-7.693,-4.371,-0.641,-1.351,1.618
1711539265.821,7.108,-6.977,-4.371,-2.252,-1.924,3.885
1711539265.927,7.365,-8.04,-3.77,-0.237,-2.023,3.397
1711539266.033,7.137,-8.318,-7.197,-0.382,-1.053,2.267
1711539266.139,7.777,-7.805,-4.903,0.771,3.489,-1.084
1711539266.245,6.773,-8.533,-4.716,0.0,3.901,0.748
1711539266.351,6.603,-8.177,-6.924,-0.71,4.672,0.305
1711539266.457,7.698,-7.278,-3.906,-0.076,-0.237,-2.534
1711539266.563,7.777,-7.427,-2.723,0.221,0.031,1.947
1711539266.669,8.023,-7.999,-3.76,-0.122,1.634,0.183
1711539266.775,8.38,-7.571,-3.339,-0.71,-1.076,0.137
1711539266.881,8.184,-7.834,-3.502,-0.328,0.603,0.359
1711539266.987,8.447,-7.671,-3.93,0.0,-0.458,0.55
1711539267.092,8.292,-7.781,-3.743,0.046,0.344,0.496
1711539267.198,8.268,-8.102,-3.384,0.084,0.481,0.695
1711539267.304,8.579,-7.968,-3.497,0.046,0.519,0.397
1711539267.41,8.268,-7.971,-3.6,-1.954,0.748,0.176
1711539267.516,8.21,-8.004,-3.236,0.053,0.534,0.389
1711539267.622,8.256,-7.889,-3.475,-0.038,-0.153,0.237
1711539267.728,8.359,-7.868,-2.881,0.061,-0.229,0.076
1711539267.834,8.32,-7.892,-3.511,-0.115,-0.153,-0.176
1711539267.94,7.829,-8.042,-3.844,-0.168,-1.885,-0.519
1711539268.046,8.407,-7.638,-3.722,-0.176,-0.679,-0.435
1711539268.152,8.1,-7.832,-4.031,0.107,-0.855,0.427
1711539268.258,8.272,-7.566,-3.988,0.023,-1.275,0.069
1711539268.364,7.92,-7.762,-4.21,0.13,0.855,0.137
1711539268.47,7.793,-7.789,-4.524,-0.321,-1.16,0.145
1711539268.576,7.896,-7.556,-4.412,-0.099,-0.885,0.718
1711539268.682,7.281,-8.383,-4.804,0.122,-3.298,-1.015
1711539268.788,8.045,-7.492,-4.304,-0.069,-0.969,-0.45
1711539268.894,7.458,-7.422,-4.349,-1.397,-0.191,-2.511
1711539269.0,7.578,-6.917,-6.15,0.977,-4.603,0.137
1711539269.106,6.177,-6.608,-5.626,0.053,-5.611,-3.351
1711539269.212,6.395,-7.173,-9.678,-0.053,-1.725,-1.053
1711539269.317,6.548,-6.495,-7.645,0.122,0.351,0.122
1711539269.423,6.488,-6.608,-6.143,0.725,0.855,-0.305
1711539269.529,6.349,-7.355,-6.582,-0.794,1.519,0.076
1711539269.635,6.28,-6.862,-7.889,0.344,-1.664,-0.985
1711539269.741,6.407,-7.044,-6.421,0.031,0.527,0.763
1711539269.846,6.752,-6.764,-6.684,-0.481,0.412,0.015
1711539269.952,6.711,-6.471,-6.632,0.702,-1.397,-0.344
1711539270.057,6.682,-6.708,-6.742,0.435,2.84,0.634
1711539270.163,6.696,-6.835,-6.857,0.435,0.626,-0.298
1711539270.268,6.467,-6.622,-6.44,0.611,-1.252,-0.664
1711539270.374,6.639,-6.826,-6.934,0.313,2.015,0.282
1711539270.48,6.625,-6.914,-5.825,-0.725,-0.809,-0.191
1711539270.586,6.725,-6.677,-6.998,0.42,-0.603,-0.267
1711539270.692,6.675,-6.728,-6.677,0.496,1.504,0.328
1711539270.797,6.675,-6.914,-5.988,-0.557,-0.656,-0.008
1711539270.903,6.61,-6.68,-7.307,0.519,-0.443,0.038
1711539271.009,6.627,-6.732,-6.217,0.336,2.252,0.496
1711539271.115,6.814,-6.833,-6.625,-0.214,-1.481,0.13
1711539271.221,6.577,-6.735,-7.183,0.481,0.008,-0.015
1711539271.327,6.617,-6.795,-6.728,0.481,0.031,0.595
1711539271.433,6.675,-6.776,-6.835,-0.229,-0.794,-0.176
1711539271.538,6.617,-6.598,-6.572,0.336,-1.916,-0.267
1711539271.644,6.639,-6.867,-6.632,0.145,0.718,0.443
1711539271.75,6.625,-6.847,-6.867,-0.336,-0.466,0.115
1711539271.856,6.531,-6.888,-6.931,0.206,-0.412,-0.023
1711539271.962,6.414,-6.847,-6.89,-0.695,-0.038,0.244
1711539272.068,6.275,-7.166,-7.923,-0.588,-2.214,0.534
1711539272.173,5.65,-6.802,-7.494,0.321,-4.031,-0.107
1711539272.279,6.081,-6.795,-7.367,0.275,-0.412,-0.252
1711539272.385,5.837,-6.593,-7.566,-0.26,-0.55,0.397
1711539272.491,5.671,-6.723,-7.753,0.069,0.115,0.137
1711539272.596,5.875,-6.941,-6.864,0.176,-0.26,-0.015
1711539272.702,5.176,-6.598,-8.921,0.046,-3.496,-0.008
1711539272.808,5.276,-6.51,-7.286,0.611,-0.656,-0.55
1711539272.914,5.42,-6.613,-7.963,0.015,1.206,0.176
1711539273.02,4.979,-6.732,-8.433,-0.511,-1.252,0.695
1711539273.126,5.183,-6.728,-7.928,0.061,0.405,0.183
1711539273.232,5.415,-6.991,-7.623,-0.198,-0.137,0.405
1711539273.337,5.018,-6.641,-7.683,-0.412,-2.626,0.641
1711539273.443,5.161,-6.644,-7.978,-0.069,0.939,0.374
1711539273.549,4.948,-6.797,-8.004,-0.092,0.061,0.26
1711539273.655,4.958,-6.73,-8.141,0.382,-0.573,-0.305
1711539273.76,4.905,-6.718,-8.577,0.336,1.122,-0.053
1711539273.866,5.07,-6.828,-7.729,0.366,1.122,-0.321
1711539273.972,4.91,-6.787,-8.28,0.084,-1.099,0.061
1711539274.078,4.927,-6.713,-8.493,0.137,1.008,0.313
1711539274.183,4.965,-6.883,-8.071,-0.412,-0.137,0.458
1711539274.289,5.018,-6.668,-8.933,0.053,-0.855,0.046
1711539274.394,4.924,-6.742,-8.098,0.061,0.626,0.229
1711539274.5,5.111,-6.96,-8.086,-0.267,1.084,0.145
1711539274.605,5.712,-6.558,-8.059,-0.489,1.183,0.87
1711539274.711,5.07,-6.895,-7.829,-0.443,0.969,0.786
1711539274.816,4.958,-6.814,-9.269,-0.107,0.954,0.336
1711539274.922,4.541,-6.603,-6.996,-0.443,-0.344,0.74
1711539275.028,5.106,-6.78,-7.868,-0.481,-3.603,0.71
1711539275.134,4.879,-6.603,-7.683,-0.229,-5.679,0.282
1711539275.239,4.594,-6.639,-9.985,0.031,1.481,0.168
1711539275.345,4.436,-6.735,-8.342,-0.076,0.618,0.298
1711539275.451,4.879,-6.459,-8.258,0.191,1.099,0.214
1711539275.557,4.663,-6.615,-8.816,0.099,-1.565,0.099
1711539275.663,4.654,-6.828,-9.482,0.511,0.427,-0.588
1711539275.768,4.495,-6.742,-8.826,0.504,0.893,-0.611
1711539275.874,4.495,-6.704,-8.304,-0.153,0.542,0.466
1711539275.98,4.254,-6.684,-9.575,0.29,0.847,-0.076
1711539276.086,4.419,-6.785,-8.641,-0.527,0.344,0.855
1711539276.191,4.357,-6.831,-8.823,0.168,-0.504,-0.137
1711539276.297,4.38,-6.756,-8.783,0.298,1.504,-0.107
1711539276.403,4.5,-6.716,-8.579,-0.397,-0.214,0.244
1711539276.509,4.311,-6.684,-9.293,0.061,-0.237,0.069
1711539276.614,4.364,-6.677,-8.646,0.168,1.466,0.252
1711539276.72,4.594,-6.601,-8.531,-0.13,-0.053,0.145
1711539276.826,4.268,-6.687,-8.9,0.046,-0.939,0.038
1711539276.932,4.507,-6.651,-8.617,0.107,1.45,0.221
1711539277.038,4.572,-6.814,-8.486,-0.046,0.031,0.015
1711539277.144,4.38,-6.687,-7.786,0.13,-1.855,-0.038
1711539277.25,4.512,-6.663,-9.652,0.099,1.511,0.13
1711539277.355,4.232,-6.843,-8.119,-0.298,-0.076,0.031
1711539277.461,4.414,-6.673,-8.864,-0.031,-0.336,0.092
1711539277.567,4.198,-6.706,-8.943,0.237,1.374,0.023
1711539277.673,4.464,-6.711,-8.366,-0.099,0.244,0.237
1711539277.779,4.431,-6.637,-8.917,0.084,-0.641,0.008
1711539277.885,4.483,-6.653,-8.517,0.038,0.924,0.26
1711539277.99,4.577,-6.701,-8.713,0.015,0.275,0.13
1711539278.096,4.426,-6.601,-8.816,0.031,-0.061,0.153
1711539278.202,4.414,-6.689,-8.615,0.023,0.534,0.122
1711539278.308,4.328,-6.713,-8.689,0.015,-0.084,0.16
1711539278.414,4.46,-6.737,-8.804,0.023,0.397,0.168
1711539278.52,4.45,-6.718,-8.78,0.038,0.244,0.191
1711539278.625,4.306,-6.72,-8.742,0.038,0.58,0.176
1711539278.731,4.299,-6.665,-8.809,0.069,0.244,0.176
1711539278.837,4.313,-6.629,-8.766,0.031,0.13,0.153
1711539278.943,4.325,-6.732,-8.718,0.015,0.183,0.168
1711539279.049,4.448,-6.673,-8.636,0.038,0.328,0.191
1711539279.155,4.361,-6.704,-8.79,0.069,0.244,0.076
1711539279.26,4.433,-6.653,-8.854,0.023,0.153,0.191
1711539279.366,4.5,-6.632,-8.639,0.0,0.305,0.191
1711539279.471,4.357,-6.682,-8.888,0.015,0.145,0.176
1711539279.577,4.45,-6.689,-8.795,0.038,0.321,0.183
1711539279.682,4.38,-6.704,-8.605,0.038,0.344,0.176
1711539279.787,4.507,-6.694,-8.826,0.031,0.214,0.191
1711539279.893,4.38,-6.682,-8.826,0.053,0.206,0.145
1711539279.998,4.357,-6.742,-8.938,0.076,0.389,0.16
1711539280.104,4.443,-6.68,-8.644,0.046,0.26,0.198
1711539280.21,4.539,-6.699,-8.773,0.115,0.366,0.122
1711539280.316,4.385,-6.661,-8.751,0.046,0.191,0.13
1711539280.422,4.359,-6.74,-8.907,0.038,0.321,0.16
1711539280.527,4.445,-6.684,-8.725,0.015,0.214,0.16
1711539280.633,4.4,-6.646,-8.744,0.023,0.206,0.16
1711539280.739,4.436,-6.706,-8.864,-0.015,0.382,0.176
1711539280.845,4.388,-6.704,-8.737,0.031,0.298,0.191
1711539280.951,4.407,-6.708,-8.854,0.015,0.305,0.153
1711539281.064,4.409,-6.701,-8.711,0.015,0.137,0.183
1711539281.17,4.383,-6.747,-8.744,0.023,0.359,0.183
1711539281.275,4.354,-6.67,-8.771,0.008,0.214,0.206
1711539281.381,4.474,-6.687,-8.67,-1.954,0.321,0.221
1711539281.487,4.39,-6.706,-8.941,0.061,0.374,0.198
1711539281.593,4.404,-6.716,-8.648,0.031,0.214,0.168
1711539281.699,4.472,-6.68,-8.768,0.038,0.313,0.198
1711539281.805,4.491,-6.665,-8.706,0.038,0.237,0.153
1711539281.911,4.431,-6.651,-8.821,0.038,0.214,0.176
1711539282.017,4.438,-6.73,-8.747,0.015,0.313,0.16
1711539282.122,4.507,-6.682,-8.67,-0.008,0.282,0.153
1711539282.228,4.479,-6.637,-8.67,0.015,0.26,0.16
1711539282.334,4.45,-6.711,-8.744,0.008,0.267,0.168
1711539282.44,4.443,-6.684,-8.687,0.046,0.282,0.198
1711539282.546,4.318,-6.687,-8.806,0.008,0.359,0.198
1711539282.652,4.517,-6.701,-8.739,0.008,0.237,0.153
1711539282.758,4.539,-6.661,-8.795,0.061,0.252,0.176
1711539282.863,4.474,-6.682,-8.692,0.031,0.229,0.183
1711539282.969,4.553,-6.725,-8.814,0.023,0.191,0.16
1711539283.075,4.586,-6.742,-8.744,0.038,0.168,0.191
1711539283.181,4.483,-6.673,-8.72,0.053,0.359,0.168
1711539283.287,4.44,-6.732,-8.761,0.061,0.244,0.168
1711539283.393,4.457,-6.74,-8.658,-0.008,0.145,0.16
1711539283.499,4.498,-6.699,-8.749,0.023,0.321,0.198
1711539283.605,4.479,-6.708,-8.696,-0.008,0.29,0.16
1711539283.71,4.546,-6.675,-8.644,0.038,0.244,0.198
1711539283.816,4.493,-6.718,-8.727,0.023,0.26,0.191
1711539283.922,4.498,-6.718,-8.713,0.0,0.198,0.183
1711539284.028,4.5,-6.677,-8.725,0.023,0.366,0.183
1711539284.134,4.462,-6.68,-8.62,0.038,0.214,0.198
1711539284.239,4.464,-6.646,-8.754,0.023,0.229,0.191
1711539284.345,4.483,-6.713,-8.663,0.053,0.183,0.183
1711539284.45,4.543,-6.696,-8.773,0.038,0.122,0.183
1711539284.556,4.436,-6.708,-8.759,0.015,0.229,0.168
1711539284.661,4.495,-6.718,-8.692,0.015,0.145,0.153
1711539284.767,4.512,-6.67,-8.723,-0.008,0.214,0.16
1711539284.872,4.443,-6.735,-8.818,0.031,0.115,0.176
1711539284.978,4.565,-6.668,-8.811,0.031,0.046,0.176
1711539285.084,4.476,-6.704,-8.704,0.069,0.115,0.069
1711539285.189,4.5,-6.649,-8.72,0.046,0.153,0.13
1711539285.295,4.589,-6.701,-8.601,0.031,0.031,0.137
1711539285.4,4.443,-6.689,-8.783,0.038,0.13,0.153
1711539285.506,4.519,-6.706,-8.677,0.046,0.107,0.16
1711539285.611,4.467,-6.637,-8.711,0.038,0.16,0.16
1711539285.717,4.467,-6.653,-8.735,0.038,0.305,0.153
1711539285.822,4.452,-6.622,-8.634,0.038,0.153,0.153
1711539285.928,4.486,-6.704,-8.696,0.038,0.351,0.168
1711539286.033,4.404,-6.696,-8.787,0.038,0.389,0.153
1711539286.139,4.596,-6.732,-8.73,0.0,0.168,0.206
1711539286.244,4.426,-6.661,-8.727,0.0,0.153,0.176
1711539286.35,4.45,-6.711,-8.648,0.0,0.267,0.16
1711539286.455,4.493,-6.72,-8.646,0.015,0.382,0.16
1711539286.561,4.462,-6.665,-8.727,0.038,0.305,0.198
1711539286.667,4.457,-6.711,-8.718,0.046,0.16,0.198
1711539286.773,4.421,-6.73,-8.646,0.015,0.153,0.191
1711539286.878,4.483,-6.68,-8.701,0.015,0.092,0.176
1711539286.984,4.498,-6.716,-8.596,0.015,0.13,0.168
1711539287.09,4.292,-6.749,-8.605,-0.008,0.336,0.153
1711539287.196,4.574,-6.766,-8.545,0.015,0.137,0.191
1711539287.301,4.57,-6.639,-8.704,0.031,0.237,0.16
1711539287.407,4.582,-6.766,-8.787,0.031,0.244,0.191
1711539287.513,4.488,-6.661,-8.713,0.023,0.092,0.198
1711539287.619,4.486,-6.665,-8.771,0.008,0.305,0.198
1711539287.725,4.582,-6.696,-8.689,0.0,-0.13,0.153
1711539287.831,4.342,-6.713,-8.761,-0.252,-0.137,0.573
1711539287.936,5.638,-7.178,-9.223,-1.656,0.374,2.733
1711539288.042,3.787,-6.867,-8.677,1.901,-1.244,0.153
1711539288.147,4.124,-6.718,-8.392,0.008,-0.061,0.16
1711539288.253,4.146,-6.651,-9.269,-0.084,-0.634,0.198
1711539288.358,3.703,-6.862,-8.821,0.069,0.344,0.183
1711539288.464,4.028,-7.432,-8.541,0.168,-0.107,-1.786
1711539288.569,4.11,-6.605,-9.503,-0.183,-0.618,-0.634
1711539288.675,4.06,-6.579,-9.762,0.061,0.29,0.099
1711539288.781,4.036,-6.548,-9.302,0.099,0.313,0.061
1711539288.887,3.93,-6.73,-9.242,0.092,0.183,0.061
1711539288.993,3.897,-6.74,-9.029,0.092,-0.405,0.076
1711539289.099,3.842,-6.749,-9.022,0.023,0.26,0.191
1711539289.204,4.112,-6.488,-7.415,-0.458,-1.534,1.168
1711539289.31,3.856,-6.663,-8.22,0.038,0.557,0.191
1711539289.416,4.146,-6.993,-9.233,0.053,0.427,0.145
1711539289.522,3.964,-6.72,-9.209,0.031,0.031,0.176
1711539289.628,3.784,-6.61,-9.501,0.015,-0.649,0.206
1711539289.733,3.82,-6.668,-8.49,0.0,-0.397,0.168
1711539289.839,4.028,-6.644,-8.886,0.023,0.718,0.176
1711539289.945,3.954,-6.699,-9.343,0.023,0.206,0.16
1711539290.05,3.918,-6.649,-8.878,0.031,0.244,0.168
1711539290.156,3.925,-6.677,-9.053,0.008,0.397,0.176
1711539290.262,3.964,-6.661,-9.06,0.008,0.084,0.198
1711539290.368,3.827,-6.586,-9.084,0.008,-0.321,0.183
1711539290.474,3.806,-6.711,-9.393,0.031,0.29,0.221
1711539290.579,3.796,-6.665,-9.101,0.061,1.275,0.183
1711539290.685,3.923,-6.684,-8.895,0.008,0.023,0.198
1711539290.791,4.007,-6.682,-9.127,0.374,1.107,-0.229
1711539290.897,4.182,-6.622,-8.581,-0.023,-1.16,0.137
1711539291.003,3.981,-6.574,-9.575,-0.321,0.214,0.84
1711539291.109,4.165,-6.179,-6.998,-0.824,-2.0,1.687
1711539291.214,3.813,-6.689,-8.593,-0.076,3.435,0.458
1711539291.32,4.091,-6.627,-9.235,0.076,3.061,0.237
1711539291.426,4.081,-7.374,-12.646,0.221,2.679,-0.046
1711539291.532,4.905,-6.019,-5.389,-0.298,2.298,1.115
1711539291.638,4.922,-8.093,-9.776,0.412,0.29,-0.351
1711539291.743,4.328,-6.855,-6.706,0.397,3.122,-0.298
1711539291.849,4.802,-6.766,-8.083,0.221,2.489,0.191
1711539291.955,4.972,-6.778,-9.69,-0.145,-0.74,0.328
1711539292.061,4.201,-6.548,-10.016,0.092,-2.504,0.366
1711539292.167,2.836,-7.532,-8.687,-0.282,-6.115,0.359
1711539292.273,1.894,-6.378,-7.039,0.084,-5.763,-0.122
1711539292.378,2.9,-7.032,-9.877,-1.885,-2.802,-0.099
1711539292.484,1.775,-6.395,-9.803,0.0,-1.847,-0.084
1711539292.59,2.292,-6.766,-9.616,0.076,0.672,-0.084
1711539292.696,2.144,-6.582,-10.045,0.038,0.42,-0.061
1711539292.801,2.038,-6.684,-9.92,-0.076,0.176,0.359
1711539292.907,2.079,-6.471,-10.253,-0.237,0.023,0.969
1711539293.013,1.736,-6.098,-9.82,-0.16,-1.885,0.931
1711539293.119,2.17,-7.334,-12.77,-0.74,0.267,1.977
1711539293.225,2.172,-6.582,-9.326,0.046,-0.176,0.183
1711539293.331,2.201,-6.886,-9.642,-0.458,1.939,0.458
1711539293.436,1.966,-6.445,-11.851,-0.168,0.916,0.763
1711539293.542,2.141,-6.543,-9.496,0.084,0.191,0.504
1711539293.648,2.256,-6.673,-9.022,-0.115,0.687,0.252
1711539293.754,2.314,-6.718,-9.266,-0.031,-0.092,0.153
1711539293.86,2.814,-7.441,-7.228,-0.427,2.962,1.198
1711539293.966,2.206,-6.368,-11.036,0.244,1.527,0.305
1711539294.078,2.201,-6.55,-10.023,0.031,0.244,0.176
1711539294.184,2.191,-6.534,-9.611,0.038,0.092,0.16
1711539294.289,2.273,-6.742,-9.877,0.031,0.275,0.176
1711539294.395,2.266,-6.586,-9.724,0.038,0.191,0.191
1711539294.5,2.191,-6.732,-9.894,0.015,0.099,0.168
1711539294.605,2.261,-6.62,-9.918,0.031,0.282,0.183
1711539294.711,2.218,-6.584,-9.966,0.023,0.176,0.153
1711539294.816,2.29,-6.637,-9.769,0.015,0.282,0.168
1711539294.922,2.232,-6.625,-9.827,0.023,0.206,0.183
1711539295.028,2.247,-6.589,-9.863,0.031,0.237,0.183
1711539295.134,2.239,-6.584,-9.891,0.023,0.237,0.176
1711539295.24,2.278,-6.644,-9.834,0.008,0.198,0.183
1711539295.345,2.314,-6.55,-9.827,0.008,0.29,0.183
1711539295.451,2.259,-6.56,-9.939,0.046,0.275,0.183
1711539295.557,2.23,-6.577,-9.856,0.046,0.237,0.191
1711539295.663,2.218,-6.567,-9.673,0.008,0.252,0.176
1711539295.769,2.299,-6.459,-9.903,0.015,0.26,0.176
1711539295.874,2.218,-6.459,-9.719,0.053,0.229,0.183
1711539295.98,2.263,-6.586,-9.858,0.023,0.221,0.16
1711539296.086,2.227,-6.598,-10.121,0.031,0.305,0.168
1711539296.192,2.27,-6.591,-9.719,0.023,0.244,0.176
1711539296.298,2.261,-6.649,-9.939,0.015,0.214,0.176
1711539296.403,2.282,-6.584,-9.884,-1.954,0.267,0.176
1711539296.509,2.273,-6.615,-9.812,0.023,0.168,0.191
1711539296.615,2.235,-6.589,-9.841,0.031,0.229,0.191
1711539296.721,2.256,-6.584,-9.812,0.0,0.244,0.176
1711539296.826,2.256,-6.538,-9.685,0.046,0.198,0.183
1711539296.932,2.251,-6.639,-9.863,0.023,0.198,0.16
1711539297.038,2.29,-6.447,-9.896,-1.954,0.244,0.191
1711539297.144,2.316,-6.445,-9.729,0.008,0.221,0.191
1711539297.25,2.261,-6.74,-9.812,0.015,0.191,0.191
1711539297.356,2.206,-6.598,-9.935,0.015,0.237,0.145
1711539297.461,2.249,-6.574,-9.844,0.015,0.26,0.191
1711539297.567,2.275,-6.57,-9.685,0.023,0.275,0.176
1711539297.672,2.208,-6.601,-9.894,0.023,0.214,0.183
1711539297.777,2.227,-6.629,-9.829,0.023,0.229,0.168
1711539297.883,2.251,-6.649,-9.788,0.015,0.229,0.183
1711539297.988,2.259,-6.567,-9.7,0.031,0.252,0.176
1711539298.094,2.237,-6.443,-9.896,0.031,0.237,0.183
1711539298.2,2.227,-6.524,-9.709,0.008,0.183,0.176
1711539298.305,2.232,-6.452,-9.738,0.023,0.29,0.176
1711539298.411,2.292,-6.644,-9.76,-0.031,0.237,0.183
1711539298.517,2.22,-6.742,-9.86,-0.023,0.298,0.168
1711539298.623,2.259,-6.467,-9.76,0.008,0.183,0.198
1711539298.729,2.244,-6.608,-9.86,0.015,0.313,0.176
1711539298.834,2.251,-6.603,-9.856,0.015,0.153,0.191
